Folder: SWCNTs/Absorption_Analysis/Absorption - Correction Files/Absorption BG Susbtraction

Note: Absorption_Analysis/Absorption - Correction Files/Absorption BG Susbtraction/Reference_Data_Bachilo.txt
SWCNT	S11	S22	E11	E22	   
(5,4)	833	483	1.488	2.567	   
(6,4)	873	581	1.420	2.134	   
(9,1)	912	693	1.359	1.789	   
(8,3)	952	663	1.302	1.870	   
(6,5)	975	567	1.272	2.187	   
(7,5)	1023	644	1.212	1.925	   
(10,2)	1053	734	1.177	1.689	   
(9,4)	1101	720	1.126	1.722	   
(8,4)	1113	587	1.114	2.112	   
(7,6)	1122	647	1.105	1.916	   
(9,2)	1139	551	1.088	2.250	   
(12,1)	1171	797	1.059	1.556	   
(8,6)	1172	716	1.058	1.732	   
(11,3)	1197	792	1.036	1.565	   
(9,5)	1244	671	0.997	1.848	   
(10,3)	1250	633	0.992	1.959	   
(10,5)	1250	786	0.992	1.577	   
(11,1)	1263	611	0.982	2.029	   
(8,7)	1267	728	0.979	1.703	   
(13,2)	1307	859	0.949	1.443	   
(9,7)	1323	790	0.937	1.569	   
(12,4)	1342	857	0.924	1.447	   
(11,4)	1372	714	0.904	1.736	   
(12,2)	1376	685	0.901	1.810	   
(10,6)	1380	756	0.898	1.640	   
(11,6)	1397	858	0.887	1.445	   
(9,8)	1414	809	0.877	1.533	   
(15,1)	1425	927	0.870	1.337	   
(10,8)	1474	868	0.841	1.428	   
(13,5)	1485	928	0.835	1.336	   
(12,5)	1496	795	0.829	1.559	   
(13,3)	1497	760	0.828	1.631	   
(10,9)	1555	892	0.797	1.390

File: Polymer_Solution.txt
AGSD05cBPY3,,
Wavelength (nm),Abs,
1600,0.000911832,
1595,0.00091868,
1590,0.000973263,
1585,0.00100061,
1580,0.00106159,
1575,0.00109125,
1570,0.00109709,
1565,0.00113062,
1560,0.00114627,
1555,0.00112545,
1550,0.00117383,
1545,0.00126593,
1540,0.00127876,
1535,0.00126388,
1530,0.00123052,
1525,0.00118966,
1520,0.00120516,
1515,0.0011717,
1510,0.00111024,
1505,0.0011145,
1500,0.00116563,
1495,0.00120238,
1490,0.00121227,
1485,0.00123276,
1480,0.00133801,
1475,0.00131451,
1470,0.00126687,
1465,0.0012143,
1460,0.0012759,
1455,0.00117736,
1450,0.00122406,
1445,0.00133484,
1440,0.00136252,
1435,0.0014169,
1430,0.00148064,
1425,0.00164345,
1420,0.00202348,
1415,0.00260374,
1410,0.00320621,
1405,0.00365156,
1400,0.00370672,
1395,0.00337792,
1390,0.00295039,
1385,0.00232401,
1380,0.00233583,
1375,0.00221631,
1370,0.00179956,
1365,0.00147941,
1360,0.00189364,
1355,0.00177245,
1350,0.0017888,
1345,0.00196268,
1340,0.00207932,
1335,0.00204836,
1330,0.00195995,
1325,0.0019082,
1320,0.00173479,
1315,0.00169482,
1310,0.00168575,
1305,0.00169789,
1300,0.00179582,
1295,0.00192242,
1290,0.00203877,
1285,0.00215124,
1280,0.00230413,
1275,0.00240035,
1270,0.00262775,
1265,0.00320736,
1260,0.00380689,
1255,0.00400558,
1250,0.00367712,
1245,0.00315257,
1240,0.00276747,
1235,0.0025421,
1230,0.00242357,
1225,0.00245673,
1220,0.00243158,
1215,0.00242778,
1210,0.00248222,
1205,0.00258559,
1200,0.00276181,
1195,0.00358156,
1190,0.0050278,
1185,0.00635967,
1180,0.00687674,
1175,0.00660755,
1170,0.00588852,
1165,0.00598882,
1160,0.00554036,
1155,0.00588773,
1150,0.00642663,
1145,0.00632158,
1140,0.0047904,
1135,0.00418771,
1130,0.00464022,
1125,0.00462282,
1120,0.0044716,
1115,0.00412515,
1110,0.0039538,
1105,0.0039287,
1100,0.00395566,
1095,0.00412421,
1090,0.00452122,
1085,0.00470407,
1080,0.00559712,
1075,0.00605016,
1070,0.00719458,
1065,0.00854636,
1060,0.0100371,
1055,0.011904,
1050,0.0141461,
1045,0.0176551,
1040,0.0230885,
1035,0.0295717,
1030,0.0360457,
1025,0.0439072,
1020,0.0597311,
1015,0.0986591,
1010,0.191028,
1005,0.364639,
1000,0.558116,
995,0.619642,
990,0.488176,
985,0.309516,
980,0.188062,
975,0.119203,
970,0.0806136,
965,0.0581504,
960,0.0444088,
955,0.0360443,
950,0.0314205,
945,0.0296019,
940,0.0299136,
935,0.0315486,
930,0.0321823,
925,0.0301771,
920,0.0269388,
915,0.0237859,
910,0.0214192,
905,0.0200527,
900,0.0194266,
895,0.0192496,
890,0.0195591,
885,0.0206786,
880,0.0229509,
875,0.0277102,
870,0.0352146,
865,0.0431433,
860,0.0481214,
855,0.0481263,
850,0.0449369,
845,0.0413562,
840,0.0383034,
835,0.0354281,
830,0.0323425,
825,0.0290237,
820,0.0258577,
815,0.023089,
810,0.0206917,
805,0.0187421,
800,0.0171674,
795,0.0161035,
790,0.0161126,
785,0.0161046,
780,0.016073,
775,0.0164932,
770,0.0171785,
765,0.0183301,
760,0.0194081,
755,0.0198977,
750,0.0197907,
745,0.0193886,
740,0.0190725,
735,0.0188943,
730,0.0186794,
725,0.0180628,
720,0.0174344,
715,0.0169039,
710,0.0166841,
705,0.0166516,
700,0.0165157,
695,0.0163372,
690,0.0165021,
685,0.016983,
680,0.0176942,
675,0.0187338,
670,0.0200891,
665,0.0217196,
660,0.0239187,
655,0.0268963,
650,0.0301795,
645,0.0305402,
640,0.0272521,
635,0.0257889,
630,0.0265791,
625,0.0279224,
620,0.0296517,
615,0.0316107,
610,0.0334149,
605,0.0363383,
600,0.0417663,
595,0.0514725,
590,0.0650069,
585,0.0824353,
580,0.114417,
575,0.150784,
570,0.144384,
565,0.102296,
560,0.0695539,
555,0.0518558,
550,0.0427141,
545,0.0376175,
540,0.0353033,
535,0.0359259,
530,0.039603,
525,0.0433226,
520,0.0431321,
515,0.0399971,
510,0.0363071,
505,0.0332361,
500,0.0315447,
495,0.0311283,
490,0.0317724,
485,0.033066,
480,0.0344289,
475,0.0347103,
470,0.0344887,
465,0.034267,
460,0.0347086,
455,0.0356195,
450,0.0370322,
445,0.0383665,
440,0.0395551,
435,0.0408538,
430,0.0423528,
425,0.0441268,
420,0.046325,
415,0.0492076,
410,0.0525924,
405,0.0571001,
400,0.0640341,
395,0.0759887,
390,0.0976686,
385,0.138279,
380,0.226057,
375,0.627349,
370,2.31656,
365,3.13762,
360,3.14325,
355,3.14196,
350,3.13825,
345,3.13074,
340,3.11393,
335,3.04729,
330,2.93924,
325,2.80658,
320,2.62356,
315,2.42045,
310,2.23706,
305,2.03465,
300,1.82699,

File: Surfactant_Film.txt
Surfactant Film
Wavelength(nm),Absorption
250,0.025274
256,0.028897
262,0.025668
268,0.024846
274,0.024791
280,0.024085
286,0.023001
292,0.021919
298,0.019821
304,0.017563
310,0.01646
316,0.015835
322,0.015435
328,0.014919
334,0.014092
340,0.013695
346,0.013097
352,0.013652
358,0.013034
364,0.012532
370,0.012304
376,0.01253
382,0.011928
388,0.011295
394,0.010838
400,0.010262
406,0.010177
412,0.010182
418,0.010118
424,0.0097386
430,0.0093466
436,0.0091142
442,0.0089217
448,0.0086755
454,0.0085599
460,0.0083641
466,0.0082161
472,0.0081414
478,0.007924
484,0.0079248
490,0.0078625
496,0.0076319
502,0.0077465
508,0.0078193
514,0.007833
520,0.0076433
526,0.0074828
532,0.0074891
538,0.0074504
544,0.0075185
550,0.0076567
556,0.0077408
562,0.0077691
568,0.0078743
574,0.0079325
580,0.00799
586,0.0082119
592,0.0081873
598,0.0084389
604,0.0084399
610,0.0083629
616,0.0082243
622,0.0082322
628,0.0082843
634,0.0085805
640,0.0088452
646,0.0091738
652,0.0094327
658,0.0093463
664,0.0093989
670,0.0090314
676,0.0089475
682,0.008744
688,0.0087182
694,0.0085634
700,0.0084819
706,0.0083561
712,0.0084925
718,0.0087911
724,0.0088814
730,0.0092042
736,0.0092013
742,0.009014
748,0.0086907
754,0.008372
760,0.0079605
766,0.007993
772,0.0075963
778,0.0076551
784,0.0074358
790,0.0074187
796,0.0073322
802,0.0073319
808,0.0072347
814,0.0072622
820,0.0072108
826,0.0071713
832,0.0069789
838,0.0068572
844,0.0067227
850,0.0066281
856,0.0065089
862,0.0064237
868,0.0063745
874,0.0061895
880,0.0062006
886,0.005988
892,0.005925
898,0.0059826
904,0.0058145
910,0.0057494
916,0.0057833
922,0.0058374
928,0.0058288
934,0.0058796
940,0.0059466
946,0.0060227
952,0.0060064
958,0.0060694
964,0.0062073
970,0.0062956
976,0.0063318
982,0.0064757
988,0.0065848
994,0.0066377
1000,0.0067124
1006,0.0067092
1012,0.0067537
1018,0.006705
1024,0.0067769
1030,0.0068363
1036,0.0067612
1042,0.0068526
1048,0.0069046
1054,0.006796
1060,0.0068723
1066,0.0068525
1072,0.0068444
1078,0.0067807
1084,0.0068457
1090,0.0069034
1096,0.0069501
1102,0.0070911
1108,0.0073596
1114,0.0076144
1120,0.0079676
1126,0.0084965
1132,0.0089157
1138,0.0093297
1144,0.0097958
1150,0.010009
1156,0.010169
1162,0.010203
1168,0.010212
1174,0.010149
1180,0.010056
1186,0.009944
1192,0.0098253
1198,0.0097324
1204,0.00964
1210,0.0094806
1216,0.0093249
1222,0.0090981
1228,0.0089677
1234,0.0086171
1240,0.0085085
1246,0.008258
1252,0.0081987
1258,0.0081046
1264,0.0081045
1270,0.008089
1276,0.0081748
1282,0.0082076
1288,0.0082487
1294,0.0082367
1300,0.0081852
1306,0.0081201
1312,0.0079914
1318,0.0077872
1324,0.0075789
1330,0.007404
1336,0.0070776
1342,0.0069773
1348,0.0067054
1354,0.0064968
1360,0.0063514
1366,0.0062584
1372,0.006191
1378,0.005883
1384,0.005968
1390,0.005764
1396,0.0056184
1402,0.0056296
1408,0.0055417
1414,0.005406
1420,0.0054161
1426,0.0052778
1432,0.0052846
1438,0.0052206
1444,0.0051854
1450,0.0051291
1456,0.0050402
1462,0.0049676
1468,0.0048481
1474,0.0047637
1480,0.0046479
1486,0.0046007
1492,0.0044818
1498,0.0044003
1504,0.00428
1510,0.0042671
1516,0.0042301
1522,0.0041042
1528,0.0040708
1534,0.0040329
1540,0.003952
1546,0.0039143
1552,0.0038888
1558,0.0038532
1564,0.0038946
1570,0.0038092
1576,0.0037638
1582,0.0036733
1588,0.0037236
1594,0.0036311
1600,0.0036005
1606,0.0036077
1612,0.0034917
1618,0.0035082
1624,0.0034404
1630,0.0033879
1636,0.0033417
1642,0.0032782
1648,0.0032379
1654,0.0031894
1660,0.003185
1666,0.0031393
1672,0.003124
1678,0.0031834
1684,0.003067
1690,0.003043
1696,0.0029351
1702,0.0030403
1708,0.0029747
1714,0.002911
1720,0.0029322
1726,0.0029715
1732,0.0029514
1738,0.0028843
1744,0.0028964
1750,0.0028399
1756,0.002904
1762,0.0028387
1768,0.0027754
1774,0.0027732
1780,0.0027468
1786,0.002743
1792,0.0026961
1798,0.0026978
1804,0.0026978
1810,0.0027269
1816,0.0027142
1822,0.0027257
1828,0.0027546
1834,0.0027226
1840,0.0027345
1846,0.0028061
1852,0.0027938
1858,0.0027531
1864,0.0027468
1870,0.0026255
1876,0.0027441
1882,0.0026868
1888,0.0027126
1894,0.0026343
1900,0.0026651
1906,0.00261
1912,0.0026782
1918,0.0026768
1924,0.0026777
1930,0.0026432
1936,0.0026624
1942,0.0026743
1948,0.0026518
1954,0.0026365
1960,0.0026368
1966,0.0026901
1972,0.0026592
1978,0.0027196
1984,0.0026705
1990,0.0027177
1996,0.002599
2000,0.0026264