Folder: SWCNTs/Absorption_Analysis/Absorption - Correction Files/Absorption BG Susbtraction/DodecaneCryostatFilm

File: Dodecane_KIT_N2_B.txt
Dodecane_KIT_N2_B
Wavelength (nm),Abs
2655,0.0760856
2646,0.0793836
2637,0.079057
2628,0.0756361
2619,0.0797288
2610,0.0780145
2601,0.0786322
2592,0.0798769
2583,0.0806399
2574,0.0803013
2565,0.0797622
2556,0.0803438
2547,0.0803349
2538,0.0805026
2529,0.0811885
2520,0.0813563
2511,0.0817673
2502,0.0821264
2493,0.0824363
2484,0.082863
2475,0.0827862
2466,0.0832029
2457,0.0834894
2448,0.0839777
2439,0.0845448
2430,0.0848813
2421,0.0849801
2412,0.0853759
2403,0.0860518
2394,0.0868328
2385,0.0874336
2376,0.0878999
2367,0.0884834
2358,0.0895622
2349,0.0901533
2340,0.0908821
2331,0.0917763
2322,0.0925934
2313,0.0935126
2304,0.0949342
2295,0.095831
2286,0.0968009
2277,0.0974953
2268,0.0993758
2259,0.100957
2250,0.102205
2241,0.103573
2232,0.105253
2223,0.106837
2214,0.108701
2205,0.110543
2196,0.112508
2187,0.114005
2178,0.115957
2169,0.11812
2160,0.120278
2151,0.122466
2142,0.124793
2133,0.127154
2124,0.129745
2115,0.1323
2106,0.135253
2097,0.137869
2088,0.141019
2079,0.144235
2070,0.147482
2061,0.150997
2052,0.154543
2043,0.158156
2034,0.161685
2025,0.165419
2016,0.169034
2007,0.172694
1998,0.176332
1989,0.179764
1980,0.183079
1971,0.186414
1962,0.189461
1953,0.19256
1944,0.195709
1935,0.198933
1926,0.202242
1917,0.20556
1908,0.208507
1899,0.21236
1890,0.215382
1881,0.218174
1872,0.220649
1863,0.223005
1854,0.224768
1845,0.22568
1836,0.226348
1827,0.226014
1818,0.225303
1809,0.224026
1800,0.222265
1791,0.219877
1782,0.217441
1773,0.214528
1764,0.211719
1755,0.208789
1746,0.205799
1737,0.202794
1728,0.199511
1719,0.196208
1710,0.192765
1701,0.189066
1692,0.185362
1683,0.181603
1674,0.17789
1665,0.17432
1656,0.170573
1647,0.167028
1638,0.163493
1629,0.160065
1620,0.156781
1611,0.153659
1602,0.150794
1593,0.148332
1584,0.146152
1575,0.144205
1566,0.142575
1557,0.141055
1548,0.139834
1539,0.138698
1530,0.137727
1521,0.136957
1512,0.136237
1503,0.135664
1494,0.135133
1485,0.134659
1476,0.134293
1467,0.134007
1458,0.13373
1449,0.13345
1440,0.133167
1431,0.133004
1422,0.132728
1413,0.13254
1404,0.132353
1395,0.132292
1386,0.131917
1377,0.131936
1368,0.131561
1359,0.131367
1350,0.131298
1341,0.131228
1332,0.131273
1323,0.131331
1314,0.131496
1305,0.131812
1296,0.132148
1287,0.132708
1278,0.133339
1269,0.134185
1260,0.135188
1251,0.136376
1242,0.137665
1233,0.139194
1224,0.140912
1215,0.142839
1206,0.145083
1197,0.147392
1188,0.150136
1179,0.152988
1170,0.155888
1161,0.158823
1152,0.161859
1143,0.165419
1134,0.16953
1125,0.174334
1116,0.179457
1107,0.184412
1098,0.188563
1089,0.19134
1080,0.193083
1071,0.19472
1062,0.196866
1053,0.199893
1044,0.20333
1035,0.206113
1026,0.207451
1017,0.207071
1008,0.205515
999,0.203287
990,0.20035
981,0.197056
972,0.193939
963,0.191272
954,0.188744
945,0.185712
936,0.182284
927,0.178747
918,0.175258
909,0.171583
900,0.168301
891,0.164765
882,0.167046
873,0.161649
864,0.161534
855,0.159682
846,0.159434
837,0.159489
828,0.160122
819,0.16119
810,0.16341
801,0.165258
792,0.167484
783,0.1695
774,0.172189
765,0.175986
756,0.180878
747,0.184834
738,0.186677
729,0.187511
720,0.188595
711,0.19033
702,0.191349
693,0.190801
684,0.189194
675,0.187738
666,0.185953
657,0.184597
648,0.183465
639,0.182479
630,0.18115
621,0.180585
612,0.180381
603,0.181676
594,0.184161
585,0.185453
576,0.18624
567,0.189374
558,0.193758
549,0.194356
540,0.193276
531,0.196257
522,0.199396
513,0.199586
504,0.201976
495,0.206965
486,0.206852
477,0.205927
468,0.210745
459,0.209308
450,0.209248
441,0.213307
432,0.215404
423,0.219213
414,0.221387
405,0.225255
396,0.230033
387,0.23334
378,0.240031
369,0.247117
360,0.252112
351,0.262256
342,0.266223
333,0.277328
324,0.287661
315,0.304279
306,0.322415
297,0.344153
288,0.368126
279,0.388376
270,0.397355
261,0.391402
252,0.375453
243,0.344806
234,0.315198
225,0.303343
216,0.398179
207,0.573284
200,0.552608

File: Dodecane_KIT_Vac_1.txt
Dodecane_KIT_Vac_1
Wavelength (nm),Abs
2655,0.072715
2646,0.0748104
2637,0.0745912
2628,0.072145
2619,0.074795
2610,0.0728759
2601,0.0742658
2592,0.07559634
2583,0.0761227
2574,0.0754329
2565,0.0746402
2556,0.075433
2547,0.0754057
2538,0.0753953
2529,0.0759338
2520,0.0761723
2511,0.0763212
2502,0.0767106
2493,0.0767209
2484,0.0774061
2475,0.0772982
2466,0.0775207
2457,0.0778098
2448,0.0783477
2439,0.0786833
2430,0.0789554
2421,0.0792063
2412,0.0794798
2403,0.0801495
2394,0.0808856
2385,0.0814181
2376,0.0818983
2367,0.082431
2358,0.0835014
2349,0.0839399
2340,0.0846604
2331,0.0854799
2322,0.0862826
2313,0.0870813
2304,0.0884344
2295,0.0892917
2286,0.0901619
2277,0.0909904
2268,0.0925789
2259,0.0943496
2250,0.095435
2241,0.0967969
2232,0.0982706
2223,0.0999589
2214,0.101651
2205,0.103528
2196,0.105121
2187,0.106545
2178,0.1087
2169,0.110625
2160,0.112746
2151,0.114597
2142,0.11696
2133,0.119187
2124,0.121526
2115,0.123913
2106,0.126818
2097,0.129474
2088,0.132331
2079,0.135484
2070,0.138438
2061,0.141762
2052,0.145085
2043,0.148571
2034,0.151802
2025,0.155229
2016,0.158774
2007,0.162194
1998,0.165479
1989,0.168868
1980,0.171837
1971,0.175124
1962,0.178058
1953,0.180943
1944,0.184012
1935,0.187031
1926,0.190233
1917,0.193197
1908,0.196067
1899,0.199824
1890,0.202725
1881,0.205366
1872,0.207769
1863,0.210057
1854,0.211734
1845,0.212744
1836,0.213511
1827,0.213483
1818,0.212842
1809,0.211775
1800,0.210115
1791,0.20821
1782,0.206042
1773,0.203523
1764,0.201018
1755,0.19835
1746,0.19561
1737,0.192923
1728,0.19
1719,0.186893
1710,0.183719
1701,0.180299
1692,0.176888
1683,0.173347
1674,0.169733
1665,0.166468
1656,0.162873
1647,0.159474
1638,0.156166
1629,0.152817
1620,0.149673
1611,0.146697
1602,0.143892
1593,0.14146
1584,0.139333
1575,0.137386
1566,0.13576
1557,0.134251
1548,0.132982
1539,0.131863
1530,0.130898
1521,0.13008
1512,0.129274
1503,0.128718
1494,0.128191
1485,0.127618
1476,0.127259
1467,0.126957
1458,0.126587
1449,0.126323
1440,0.12607
1431,0.125824
1422,0.125551
1413,0.125353
1404,0.125201
1395,0.125064
1386,0.124826
1377,0.124649
1368,0.124323
1359,0.12412
1350,0.124029
1341,0.123928
1332,0.123936
1323,0.123972
1314,0.124144
1305,0.124409
1296,0.124711
1287,0.125212
1278,0.125794
1269,0.126573
1260,0.127481
1251,0.12856
1242,0.129817
1233,0.131294
1224,0.132884
1215,0.134804
1206,0.136939
1197,0.139137
1188,0.141804
1179,0.144546
1170,0.14738
1161,0.150249
1152,0.153303
1143,0.156814
1134,0.160921
1125,0.165608
1116,0.170606
1107,0.175414
1098,0.179409
1089,0.182199
1080,0.184066
1071,0.185768
1062,0.188049
1053,0.191048
1044,0.194375
1035,0.197088
1026,0.198343
1017,0.197964
1008,0.196529
999,0.194404
990,0.191561
981,0.188357
972,0.185367
963,0.182728
954,0.180113
945,0.177096
936,0.173679
927,0.170258
918,0.166636
909,0.16303
900,0.159773
891,0.156431
882,0.155741
873,0.15756
864,0.153479
855,0.151594
846,0.151731
837,0.150158
828,0.150891
819,0.152151
810,0.153386
801,0.154911
792,0.15745
783,0.159432
774,0.162194
765,0.165597
756,0.170119
747,0.174298
738,0.176061
729,0.176959
720,0.177779
711,0.179406
702,0.180444
693,0.179779
684,0.178354
675,0.176794
666,0.175083
657,0.173645
648,0.172616
639,0.171428
630,0.170155
621,0.169394
612,0.169355
603,0.17055
594,0.172771
585,0.174015
576,0.175103
567,0.178269
558,0.182028
549,0.182536
540,0.181791
531,0.184613
522,0.187581
513,0.188026
504,0.190243
495,0.195146
486,0.195071
477,0.193963
468,0.198539
459,0.1975272
450,0.197348
441,0.201168
432,0.203457
423,0.207309
414,0.208817
405,0.212719
396,0.217232
387,0.220184
378,0.226617
369,0.233608
360,0.238703
351,0.248478
342,0.254836
333,0.265063
324,0.275188
315,0.291585
306,0.310686
297,0.331916
288,0.35607
279,0.376191
270,0.383913
261,0.377216
252,0.361146
243,0.330684
234,0.299933
225,0.289278
216,0.385373
207,0.55802
200,0.53685