Folder: SWCNTs/TGA_Analysis

File: 20251002-01 CB-HS1.txt
         Index            Ts             t            HF        Weight            Tr
           [#]          [°C]           [s]          [mW]          [mg]          [°C]
             0   3,21771e+01   0,00000e+00  -5,09125e+00   2,35429e+00   3,00000e+01
            50   3,83161e+01   5,00000e+01  -4,25387e+00   2,35477e+00   3,83333e+01
           100   4,57561e+01   1,00000e+02  -3,44638e+00   2,34772e+00   4,66667e+01
           150   5,36662e+01   1,50000e+02  -3,01942e+00   2,34131e+00   5,50000e+01
           200   6,17440e+01   2,00000e+02  -2,68323e+00   2,33525e+00   6,33333e+01
           250   6,98752e+01   2,50000e+02  -2,45672e+00   2,33116e+00   7,16667e+01
           300   7,80559e+01   3,00000e+02  -2,30412e+00   2,32683e+00   8,00000e+01
           350   8,63193e+01   3,50000e+02  -2,26179e+00   2,32430e+00   8,83333e+01
           400   9,45728e+01   4,00000e+02  -2,26822e+00   2,32248e+00   9,66667e+01
           450   1,02867e+02   4,50000e+02  -2,31836e+00   2,32102e+00   1,05000e+02
           500   1,11179e+02   5,00000e+02  -2,33004e+00   2,31957e+00   1,13333e+02
           550   1,19544e+02   5,50000e+02  -2,19400e+00   2,31498e+00   1,21667e+02
           600   1,27900e+02   6,00000e+02  -2,43041e+00   2,31342e+00   1,30000e+02
           650   1,36307e+02   6,50000e+02  -2,79342e+00   2,31374e+00   1,38333e+02
           700   1,44711e+02   7,00000e+02  -3,12713e+00   2,31347e+00   1,46667e+02
           750   1,53117e+02   7,50000e+02  -3,36932e+00   2,31330e+00   1,55000e+02
           800   1,61558e+02   8,00000e+02  -3,64136e+00   2,31312e+00   1,63333e+02
           850   1,69981e+02   8,50000e+02  -3,82186e+00   2,31343e+00   1,71667e+02
           900   1,78434e+02   9,00000e+02  -3,95394e+00   2,31203e+00   1,80000e+02
           950   1,86899e+02   9,50000e+02  -4,13352e+00   2,31103e+00   1,88333e+02
          1000   1,95357e+02   1,00000e+03  -4,35134e+00   2,31002e+00   1,96667e+02
          1050   2,03821e+02   1,05000e+03  -4,57815e+00   2,30911e+00   2,05000e+02
          1100   2,12262e+02   1,10000e+03  -4,68314e+00   2,30735e+00   2,13333e+02
          1150   2,20730e+02   1,15000e+03  -4,84845e+00   2,30592e+00   2,21667e+02
          1200   2,29193e+02   1,20000e+03  -4,99084e+00   2,30283e+00   2,30000e+02
          1250   2,37647e+02   1,25000e+03  -5,01506e+00   2,29850e+00   2,38333e+02
          1300   2,46114e+02   1,30000e+03  -5,19066e+00   2,29323e+00   2,46667e+02
          1350   2,54559e+02   1,35000e+03  -5,38697e+00   2,28654e+00   2,55000e+02
          1400   2,63012e+02   1,40000e+03  -5,50184e+00   2,27700e+00   2,63333e+02
          1450   2,71463e+02   1,45000e+03  -5,58025e+00   2,26551e+00   2,71667e+02
          1500   2,79894e+02   1,50000e+03  -5,73725e+00   2,25307e+00   2,80000e+02
          1550   2,88341e+02   1,55000e+03  -5,94724e+00   2,24036e+00   2,88333e+02
          1600   2,96791e+02   1,60000e+03  -6,07671e+00   2,22769e+00   2,96667e+02
          1650   3,05237e+02   1,65000e+03  -6,16376e+00   2,21590e+00   3,05000e+02
          1700   3,13685e+02   1,70000e+03  -6,06630e+00   2,20472e+00   3,13333e+02
          1750   3,22127e+02   1,75000e+03  -5,88876e+00   2,19444e+00   3,21667e+02
          1800   3,30553e+02   1,80000e+03  -5,72900e+00   2,18534e+00   3,30000e+02
          1850   3,39003e+02   1,85000e+03  -5,47673e+00   2,17598e+00   3,38333e+02
          1900   3,47431e+02   1,90000e+03  -5,18843e+00   2,16696e+00   3,46667e+02
          1950   3,55864e+02   1,95000e+03  -4,81586e+00   2,15791e+00   3,55000e+02
          2000   3,64291e+02   2,00000e+03  -4,42699e+00   2,14863e+00   3,63333e+02
          2050   3,72707e+02   2,05000e+03  -4,13031e+00   2,13910e+00   3,71667e+02
          2100   3,81139e+02   2,10000e+03  -3,77337e+00   2,12891e+00   3,80000e+02
          2150   3,89547e+02   2,15000e+03  -3,41924e+00   2,11812e+00   3,88333e+02
          2200   3,97972e+02   2,20000e+03  -2,96122e+00   2,10687e+00   3,96667e+02
          2250   4,06367e+02   2,25000e+03  -2,49292e+00   2,09508e+00   4,05000e+02
          2300   4,14785e+02   2,30000e+03  -2,03292e+00   2,08293e+00   4,13333e+02
          2350   4,23189e+02   2,35000e+03  -1,40133e+00   2,07068e+00   4,21667e+02
          2400   4,31591e+02   2,40000e+03  -8,39675e-01   2,05754e+00   4,30000e+02
          2450   4,39988e+02   2,45000e+03  -1,87344e-01   2,04281e+00   4,38333e+02
          2500   4,48379e+02   2,50000e+03   4,68257e-01   2,02933e+00   4,46667e+02
          2550   4,56763e+02   2,55000e+03   1,16731e+00   2,01576e+00   4,55000e+02
          2600   4,65149e+02   2,60000e+03   1,93014e+00   2,00073e+00   4,63333e+02
          2650   4,73541e+02   2,65000e+03   2,67046e+00   1,98552e+00   4,71667e+02
          2700   4,81919e+02   2,70000e+03   3,41825e+00   1,97034e+00   4,80000e+02
          2750   4,90294e+02   2,75000e+03   4,20964e+00   1,95474e+00   4,88333e+02
          2800   4,98675e+02   2,80000e+03   4,98487e+00   1,93785e+00   4,96667e+02
          2850   5,07051e+02   2,85000e+03   5,71692e+00   1,92028e+00   5,05000e+02
          2900   5,15453e+02   2,90000e+03   6,41554e+00   1,90192e+00   5,13333e+02
          2950   5,23860e+02   2,95000e+03   7,00310e+00   1,88159e+00   5,21667e+02
          3000   5,32251e+02   3,00000e+03   7,42612e+00   1,85843e+00   5,30000e+02
          3050   5,40668e+02   3,05000e+03   7,85668e+00   1,83151e+00   5,38333e+02
          3100   5,49068e+02   3,10000e+03   8,10182e+00   1,80225e+00   5,46667e+02
          3150   5,57478e+02   3,15000e+03   8,29943e+00   1,76930e+00   5,55000e+02
          3200   5,65882e+02   3,20000e+03   8,32281e+00   1,73160e+00   5,63333e+02
          3250   5,74310e+02   3,25000e+03   8,20816e+00   1,69043e+00   5,71667e+02
          3300   5,82703e+02   3,30000e+03   7,75317e+00   1,64255e+00   5,80000e+02
          3350   5,91096e+02   3,35000e+03   6,87243e+00   1,58725e+00   5,88333e+02
          3400   5,99493e+02   3,40000e+03   5,81886e+00   1,52316e+00   5,96667e+02
          3450   6,07893e+02   3,45000e+03   5,04091e+00   1,45124e+00   6,05000e+02
          3500   6,16321e+02   3,50000e+03   5,51259e+00   1,37488e+00   6,13333e+02
          3550   6,24761e+02   3,55000e+03   7,65344e+00   1,30143e+00   6,21667e+02
          3600   6,33186e+02   3,60000e+03   1,09070e+01   1,23756e+00   6,30000e+02
          3650   6,41605e+02   3,65000e+03   1,40636e+01   1,18416e+00   6,38333e+02
          3700   6,50021e+02   3,70000e+03   1,63747e+01   1,13821e+00   6,46667e+02
          3750   6,58433e+02   3,75000e+03   1,77039e+01   1,09566e+00   6,55000e+02
          3800   6,66837e+02   3,80000e+03   1,81905e+01   1,05281e+00   6,63333e+02
          3850   6,75235e+02   3,85000e+03   1,80931e+01   1,00788e+00   6,71667e+02
          3900   6,83638e+02   3,90000e+03   1,74510e+01   9,59518e-01   6,80000e+02
          3950   6,92043e+02   3,95000e+03   1,63566e+01   9,05657e-01   6,88333e+02
          4000   7,00438e+02   4,00000e+03   1,49089e+01   8,47072e-01   6,96667e+02
          4050   7,08835e+02   4,05000e+03   1,31312e+01   7,83859e-01   7,05000e+02
          4100   7,17230e+02   4,10000e+03   1,15597e+01   7,16949e-01   7,13333e+02
          4150   7,25630e+02   4,15000e+03   1,00225e+01   6,50225e-01   7,21667e+02
          4200   7,34045e+02   4,20000e+03   8,99504e+00   5,87421e-01   7,30000e+02
          4250   7,42450e+02   4,25000e+03   8,65507e+00   5,29564e-01   7,38333e+02
          4300   7,50867e+02   4,30000e+03   8,62683e+00   4,82264e-01   7,46667e+02
          4350   7,59281e+02   4,35000e+03   8,86683e+00   4,43663e-01   7,55000e+02
          4400   7,67709e+02   4,40000e+03   9,03152e+00   4,13835e-01   7,63333e+02
          4450   7,76128e+02   4,45000e+03   8,91374e+00   3,89319e-01   7,71667e+02
          4500   7,84574e+02   4,50000e+03   8,97250e+00   3,71011e-01   7,80000e+02
          4550   7,93009e+02   4,55000e+03   9,12724e+00   3,56027e-01   7,88333e+02
          4600   8,01443e+02   4,60000e+03   9,22131e+00   3,45131e-01   7,96667e+02
          4650   8,09883e+02   4,65000e+03   9,39085e+00   3,37282e-01   8,05000e+02
          4700   8,18327e+02   4,70000e+03   9,76526e+00   3,31021e-01   8,13333e+02
          4750   8,26766e+02   4,75000e+03   9,89828e+00   3,27841e-01   8,21667e+02
          4800   8,35206e+02   4,80000e+03   1,00612e+01   3,24815e-01   8,30000e+02
          4850   8,43658e+02   4,85000e+03   1,02155e+01   3,22648e-01   8,38333e+02
          4900   8,52107e+02   4,90000e+03   1,03663e+01   3,21743e-01   8,46667e+02
          4950   8,60572e+02   4,95000e+03   1,07157e+01   3,20841e-01   8,55000e+02
          5000   8,69038e+02   5,00000e+03   1,10702e+01   3,20591e-01   8,63333e+02
          5050   8,77541e+02   5,05000e+03   1,14156e+01   3,19554e-01   8,71667e+02
          5100   8,86019e+02   5,10000e+03   1,17198e+01   3,18910e-01   8,80000e+02
          5150   8,94491e+02   5,15000e+03   1,21792e+01   3,18598e-01   8,88333e+02
          5200   9,02955e+02   5,20000e+03   1,24459e+01   3,18114e-01   8,96667e+02
          5250   9,11439e+02   5,25000e+03   1,26134e+01   3,17402e-01   9,05000e+02
          5300   9,19917e+02   5,30000e+03   1,26793e+01   3,17056e-01   9,13333e+02
          5350   9,28421e+02   5,35000e+03   1,28212e+01   3,17027e-01   9,21667e+02
          5400   9,36915e+02   5,40000e+03   1,28544e+01   3,15934e-01   9,30000e+02
          5450   9,45425e+02   5,45000e+03   1,27128e+01   3,15702e-01   9,38333e+02
          5500   9,53952e+02   5,50000e+03   1,24677e+01   3,15111e-01   9,46667e+02
          5550   9,62450e+02   5,55000e+03   1,20366e+01   3,15408e-01   9,55000e+02
          5600   9,70964e+02   5,60000e+03   1,14310e+01   3,14787e-01   9,63333e+02
          5650   9,79508e+02   5,65000e+03   1,07700e+01   3,13968e-01   9,71667e+02
          5700   9,88015e+02   5,70000e+03   9,94630e+00   3,12840e-01   9,80000e+02
          5750   9,96543e+02   5,75000e+03   8,68400e+00   3,11807e-01   9,88333e+02
          5800   1,00506e+03   5,80000e+03   7,13403e+00   3,11259e-01   9,96667e+02
&20251002-01 CB-HS1