Folder: SWCNTs/AbsorptionAnalysis/Absorption - Correction Files/Absorption BG Susbtraction/DodecaneCryostatFilm

File: Dodecane_KIT_Air_A.txt
Dodecane_KIT_Air_A
Wavelength (nm),Abs
2655,0.0722297
2646,0.0753562
2637,0.073726
2628,0.0721597
2619,0.0755136
2610,0.0733171
2601,0.0736069
2592,0.0754627
2583,0.0756428
2574,0.0760036
2565,0.074981
2556,0.0747074
2547,0.0749784
2538,0.0750049
2529,0.0753443
2520,0.0754372
2511,0.0758685
2502,0.0759366
2493,0.0762396
2484,0.0765706
2475,0.0768078
2466,0.0768691
2457,0.077285
2448,0.0775522
2439,0.0780286
2430,0.0783038
2421,0.0785616
2412,0.0789328
2403,0.0795218
2394,0.080187
2385,0.0807148
2376,0.0813353
2367,0.0817431
2358,0.0828841
2349,0.0834034
2340,0.0839993
2331,0.0847292
2322,0.0855791
2313,0.0865728
2304,0.0877295
2295,0.0886599
2286,0.0892769
2277,0.09037
2268,0.0921016
2259,0.0933105
2250,0.0946111
2241,0.0960424
2232,0.09742
2223,0.0990609
2214,0.100734
2205,0.102928
2196,0.104378
2187,0.105977
2178,0.107872
2169,0.109732
2160,0.111918
2151,0.113926
2142,0.116116
2133,0.118423
2124,0.12095
2115,0.123271
2106,0.125853
2097,0.128726
2088,0.131554
2079,0.134665
2070,0.137565
2061,0.140883
2052,0.144343
2043,0.147602
2034,0.150998
2025,0.154432
2016,0.157878
2007,0.161323
1998,0.164627
1989,0.167939
1980,0.171022
1971,0.17417
1962,0.177063
1953,0.180109
1944,0.183135
1935,0.186107
1926,0.189451
1917,0.192522
1908,0.195578
1899,0.199206
1890,0.202005
1881,0.204547
1872,0.207552
1863,0.209187
1854,0.211151
1845,0.211882
1836,0.212917
1827,0.212602
1818,0.211903
1809,0.210832
1800,0.209277
1791,0.207307
1782,0.20505
1773,0.202604
1764,0.200071
1755,0.197495
1746,0.194808
1737,0.192128
1728,0.189153
1719,0.186084
1710,0.182912
1701,0.179607
1692,0.176128
1683,0.172602
1674,0.169023
1665,0.165706
1656,0.16217
1647,0.158748
1638,0.155403
1629,0.152083
1620,0.149008
1611,0.145966
1602,0.143182
1593,0.140767
1584,0.138572
1575,0.136706
1566,0.135026
1557,0.133536
1548,0.132298
1539,0.131147
1530,0.130179
1521,0.12936
1512,0.128642
1503,0.127989
1494,0.127455
1485,0.1269
1476,0.126544
1467,0.126291
1458,0.125869
1449,0.125631
1440,0.125347
1431,0.125232
1422,0.124909
1413,0.124684
1404,0.124517
1395,0.124566
1386,0.124256
1377,0.124044
1368,0.123873
1359,0.123656
1350,0.123383
1341,0.123241
1332,0.123251
1323,0.123264
1314,0.123472
1305,0.123691
1296,0.124019
1287,0.124463
1278,0.125076
1269,0.12583
1260,0.126732
1251,0.127805
1242,0.129123
1233,0.130576
1224,0.132136
1215,0.134019
1206,0.13619
1197,0.138423
1188,0.141029
1179,0.143814
1170,0.14665
1161,0.149536
1152,0.152547
1143,0.15606
1134,0.160187
1125,0.164855
1116,0.169859
1107,0.174589
1098,0.178515
1089,0.181316
1080,0.183179
1071,0.184901
1062,0.187231
1053,0.190143
1044,0.193516
1035,0.19613
1026,0.197368
1017,0.197106
1008,0.195588
999,0.193503
990,0.190732
981,0.187543
972,0.184555
963,0.181902
954,0.179241
945,0.176181
936,0.172821
927,0.169367
918,0.165826
909,0.162241
900,0.158977
891,0.15721
882,0.159604
873,0.152705
864,0.152772
855,0.151049
846,0.150682
837,0.150097
828,0.150245
819,0.150948
810,0.152903
801,0.154307
792,0.156519
783,0.158562
774,0.161432
765,0.165023
756,0.1699
747,0.17405
738,0.175521
729,0.176524
720,0.177213
711,0.178935
702,0.179853
693,0.179375
684,0.177773
675,0.176356
666,0.174578
657,0.173193
648,0.17209
639,0.170849
630,0.169687
621,0.169085
612,0.168794
603,0.170125
594,0.172189
585,0.17366
576,0.174449
567,0.177584
558,0.181578
549,0.182067
540,0.181127
531,0.183901
522,0.18684
513,0.187241
504,0.189627
495,0.194623
486,0.194247
477,0.193483
468,0.197832
459,0.196783
450,0.196732
441,0.200561
432,0.202692
423,0.206431
414,0.207979
405,0.211864
396,0.216529
387,0.219595
378,0.225562
369,0.232712
360,0.238071
351,0.247714
342,0.253669
333,0.263635
324,0.274313
315,0.290738
306,0.308941
297,0.330692
288,0.354515
279,0.374506
270,0.382032
261,0.376111
252,0.359888
243,0.328866
234,0.298568
225,0.287553
216,0.383535
207,0.55705
200,0.537362
 New:Choice 1,
 New:Choice 0,
 New:Choice 1,
 New:Choice 0,
 New:2500.000,
 New:175.000,
 New:  600.000,
 New:  600.000,
 New:Reduced,
 New:   900.00,
 New:   900.00,
 New:1,
 New:1,
 New:1.000,
 New:1,
 New:External sipper,
 New:Reduced,
 New:Double fixed slit,
 New:2655.000,
 New:200.000,
 New:Choice 1,
 New:Choice 0,
 New:Choice 1,
 New:Choice 0,
 New:2500.000,
 New:175.000,
 New:  600.000,
 New:  600.000,
 New:Reduced,
 New:   900.00,
 New:   900.00,
 New:1,
 New:1,
 New:1.000,
 New:1,
 New:External sipper,
 New:Reduced,
 New:Double fixed slit,
 New:2655.000,
 New:200.000,
 New:Choice 1,
 New:Choice 0,
 New:Choice 1,
 New:Choice 0,
 New:2500.000,
 New:175.000,
 New:  600.000,
 New:  600.000,
 New:Reduced,
 New:   900.00,
 New:   900.00,
 New:1,
 New:1,
 New:1.000,
 New:1,
 New:External sipper,
 New:Reduced,
 New:Double fixed slit,
 New:2655.000,
 New:200.000,
 New:Choice 1,
 New:Choice 0,
 New:Choice 1,
 New:Choice 0,
 New:2500.000,
 New:175.000,
 New:  600.000,
 New:  600.000,
 New:Reduced,
 New:   900.00,
 New:   900.00,
 New:1,
 New:1,
 New:1.000,
 New:1,
 New:External sipper,
 New:Reduced,
 New:Double fixed slit,
 New:2655.000,
 New:200.000,
 New:Choice 1,
 New:Choice 0,
 New:Choice 1,
 New:Choice 0,
 New:2500.000,
 New:175.000,
 New:  600.000,
 New:  600.000,
 New:Reduced,
 New:   900.00,
 New:   900.00,
 New:1,
 New:1,
 New:1.000,
 New:1,
 New:External sipper,
 New:Reduced,
 New:Double fixed slit,
 New:2655.000,
 New:200.000,
 New:Choice 1,
 New:Choice 0,
 New:Choice 1,
 New:Choice 0,
 New:2500.000,
 New:175.000,
 New:  600.000,
 New:  600.000,
 New:Reduced,
 New:   900.00,
 New:   900.00,
 New:1,
 New:1,
 New:1.000,
 New:1,
 New:External sipper,
 New:Reduced,
 New:Double fixed slit,
 New:2655.000,
 New:200.000,
 New:Choice 1,
 New:Choice 0,
 New:Choice 1,
 New:Choice 0,
 New:2500.000,
 New:175.000,
 New:  600.000,
 New:  600.000,
 New:Reduced,
 New:   900.00,
 New:   900.00,
 New:1,
 New:1,
 New:1.000,
 New:1,
 New:External sipper,
 New:Reduced,
 New:Double fixed slit,
 New:2655.000,
 New:200.000,
 New:Choice 1,
 New:Choice 0,
 New:Choice 1,
 New:Choice 0,
 New:2500.000,
 New:175.000,
 New:  600.000,
 New:  600.000,
 New:Reduced,
 New:   900.00,
 New:   900.00,
 New:1,
 New:1,
 New:1.000,
 New:1,
 New:External sipper,
 New:Reduced,
 New:Double fixed slit,
 New:2655.000,
 New:200.000,
 New:Choice 1,
 New:Choice 0,
 New:Choice 1,
 New:Choice 0,
 New:2500.000,
 New:175.000,
 New:  600.000,
 New:  600.000,
 New:Reduced,
 New:   900.00,
 New:   900.00,
 New:1,
 New:1,
 New:1.000,
 New:1,
 New:External sipper,
 New:Reduced,
 New:Double fixed slit,
 New:2655.000,
 New:200.000,
 New:Choice 1,
 New:Choice 0,
 New:Choice 1,
 New:Choice 0,
 New:2500.000,
 New:175.000,
 New:  600.000,
 New:  600.000,
 New:Reduced,
 New:   900.00,
 New:   900.00,
 New:1,
 New:1,
 New:1.000,
 New:1,
 New:External sipper,
 New:Reduced,
 New:Double fixed slit,
 New:2655.000,
 New:200.000,
 New:Choice 1,
 New:Choice 0,
 New:Choice 1,
 New:Choice 0,
 New:2500.000,
 New:175.000,
 New:  600.000,
 New:  600.000,
 New:Reduced,
 New:   900.00,
 New:   900.00,
 New:1,
 New:1,
 New:1.000,
 New:1,
 New:External sipper,
 New:Reduced,
 New:Double fixed slit,
 New:2655.000,
 New:200.000,
 New:Choice 1,
 New:Choice 0,
 New:Choice 1,
 New:Choice 0,
 New:2500.000,
 New:175.000,
 New:  600.000,
 New:  600.000,
 New:Reduced,
 New:   900.00,
 New:   900.00,
 New:1,
 New:1,
 New:1.000,
 New:1,
 New:External sipper,
 New:Reduced,
 New:Double fixed slit,
 New:2655.000,
 New:200.000,
 New:Choice 1,
 New:Choice 0,
 New:Choice 1,
 New:Choice 0,
 New:2500.000,
 New:175.000,
 New:  600.000,
 New:  600.000,
 New:Reduced,
 New:   900.00,
 New:   900.00,
 New:1,
 New:1,
 New:1.000,
 New:1,
 New:External sipper,
 New:Reduced,
 New:Double fixed slit,
 New:2655.000,
 New:200.000,
 New:Choice 1,
 New:Choice 0,
 New:Choice 1,
 New:Choice 0,
 New:2500.000,
 New:175.000,
 New:  600.000,
 New:  600.000,
 New:Reduced,
 New:   900.00,
 New:   900.00,
 New:1,
 New:1,
 New:1.000,
 New:1,
 New:External sipper,
 New:Reduced,
 New:Double fixed slit,
 New:2655.000,
 New:200.000,
 New:Choice 1,
 New:Choice 0,
 New:Choice 1,
 New:Choice 0,
 New:2500.000,
 New:175.000,
 New:  600.000,
 New:  600.000,
 New:Reduced,
 New:   900.00,
 New:   900.00,
 New:1,
 New:1,
 New:1.000,
 New:1,
 New:External sipper,
 New:Reduced,
 New:Double fixed slit,
 New:2655.000,
 New:200.000,
 New:Choice 1,
 New:Choice 0,
 New:Choice 1,
 New:Choice 0,
 New:2500.000,
 New:175.000,
 New:  600.000,
 New:  600.000,
 New:Reduced,
 New:   900.00,
 New:   900.00,
 New:1,
 New:1,
 New:1.000,
 New:1,
 New:External sipper,
 New:Reduced,
 New:Double fixed slit,
 New:2655.000,
 New:200.000,
 New:Choice 1,
 New:Choice 0,
 New:Choice 1,
 New:Choice 0,
 New:2500.000,
 New:175.000,
 New:  600.000,
 New:  600.000,
 New:Reduced,
 New:   900.00,
 New:   900.00,
 New:1,
 New:1,
 New:1.000,
 New:1,
 New:External sipper,
 New:Reduced,
 New:Double fixed slit,
 New:2655.000,
 New:200.000,
 New:Choice 1,
 New:Choice 0,
 New:Choice 1,
 New:Choice 0,
 New:2500.000,
 New:175.000,
 New:  600.000,
 New:  600.000,
 New:Reduced,
 New:   900.00,
 New:   900.00,
 New:1,
 New:1,
 New:1.000,
 New:1,
 New:External sipper,
 New:Reduced,
 New:Double fixed slit,
 New:2655.000,
 New:200.000,
 New:Choice 1,
 New:Choice 0,
 New:Choice 1,
 New:Choice 0,
 New:2500.000,
 New:175.000,
 New:  600.000,
 New:  600.000,
 New:Reduced,
 New:   900.00,
 New:   900.00,
 New:1,
 New:1,
 New:1.000,
 New:1,
 New:External sipper,
 New:Reduced,
 New:Double fixed slit,
 New:2655.000,
 New:200.000,
 New:Choice 1,
 New:Choice 0,
 New:Choice 1,
 New:Choice 0,
 New:2500.000,
 New:175.000,
 New:  600.000,
 New:  600.000,
 New:Reduced,
 New:   900.00,
 New:   900.00,
 New:1,
 New:1,
 New:1.000,
 New:1,
 New:External sipper,
 New:Reduced,
 New:Double fixed slit,
 New:2655.000,
 New:200.000,
 New:Choice 1,
 New:Choice 0,
 New:Choice 1,
 New:Choice 0,
 New:2500.000,
 New:175.000,
 New:  600.000,
 New:  600.000,
 New:Reduced,
 New:   900.00,
 New:   900.00,
 New:1,
 New:1,
 New:1.000,
 New:1,
 New:External sipper,
 New:Reduced,
 New:Double fixed slit,
 New:2655.000,
 New:200.000,

File: Dodecane_KIT_N2_D.txt
Dodecane_KIT_N2_D
Wavelength (nm),Abs
2655,0.0802625
2646,0.0813021
2637,0.0818658
2628,0.080343
2619,0.0822539
2610,0.082263
2601,0.0820612
2592,0.0831662
2583,0.0816102
2574,0.0824119
2565,0.0811856
2556,0.0824653
2547,0.083242
2538,0.0828389
2529,0.0830743
2520,0.0833103
2511,0.0834916
2502,0.0839373
2493,0.0840122
2484,0.0844555
2475,0.0846749
2466,0.0849116
2457,0.085351
2448,0.0856188
2439,0.0861565
2430,0.0864955
2421,0.0869871
2412,0.0874203
2403,0.0880552
2394,0.0887364
2385,0.0892206
2376,0.0897222
2367,0.090406
2358,0.0913753
2349,0.0919455
2340,0.0929242
2331,0.0934975
2322,0.094697
2313,0.0955371
2304,0.0967861
2295,0.0978563
2286,0.0986903
2277,0.0996894
2268,0.101412
2259,0.102956
2250,0.104136
2241,0.105387
2232,0.106973
2223,0.108785
2214,0.110748
2205,0.112806
2196,0.114353
2187,0.116195
2178,0.118173
2169,0.120407
2160,0.122424
2151,0.124744
2142,0.126974
2133,0.129497
2124,0.132091
2115,0.134611
2106,0.13742
2097,0.140421
2088,0.143262
2079,0.146521
2070,0.14974
2061,0.153245
2052,0.156757
2043,0.160253
2034,0.163932
2025,0.167509
2016,0.171409
2007,0.17488
1998,0.178569
1989,0.182119
1980,0.185443
1971,0.188706
1962,0.191747
1953,0.194928
1944,0.198136
1935,0.201325
1926,0.204489
1917,0.207729
1908,0.210807
1899,0.214396
1890,0.217691
1881,0.22023
1872,0.222846
1863,0.225101
1854,0.226802
1845,0.227745
1836,0.228414
1827,0.227978
1818,0.227251
1809,0.225959
1800,0.224103
1791,0.221854
1782,0.219253
1773,0.216325
1764,0.213471
1755,0.210518
1746,0.207519
1737,0.204454
1728,0.201161
1719,0.197809
1710,0.194461
1701,0.19076
1692,0.187062
1683,0.183263
1674,0.179501
1665,0.175913
1656,0.17224
1647,0.168689
1638,0.165158
1629,0.161666
1620,0.158453
1611,0.155368
1602,0.152477
1593,0.150098
1584,0.147869
1575,0.146012
1566,0.144317
1557,0.142876
1548,0.141629
1539,0.14052
1530,0.139593
1521,0.138735
1512,0.138035
1503,0.137537
1494,0.137015
1485,0.136492
1476,0.136173
1467,0.135891
1458,0.135579
1449,0.135331
1440,0.135114
1431,0.134891
1422,0.134637
1413,0.134463
1404,0.134348
1395,0.134187
1386,0.133972
1377,0.133782
1368,0.133532
1359,0.13336
1350,0.133247
1341,0.133189
1332,0.133188
1323,0.133292
1314,0.133496
1305,0.133839
1296,0.134189
1287,0.134691
1278,0.135406
1269,0.136227
1260,0.137233
1251,0.138408
1242,0.139746
1233,0.141286
1224,0.142992
1215,0.144966
1206,0.147198
1197,0.149481
1188,0.152288
1179,0.155119
1170,0.158063
1161,0.160954
1152,0.164108
1143,0.167601
1134,0.171767
1125,0.176595
1116,0.181689
1107,0.186626
1098,0.190736
1089,0.193572
1080,0.195368
1071,0.19696
1062,0.199196
1053,0.202176
1044,0.205591
1035,0.208349
1026,0.209674
1017,0.209227
1008,0.207654
999,0.205501
990,0.202458
981,0.199089
972,0.19604
963,0.193429
954,0.190795
945,0.187774
936,0.184324
927,0.180829
918,0.177254
909,0.173699
900,0.170415
891,0.164652
882,0.167453
873,0.164727
864,0.164283
855,0.161769
846,0.162007
837,0.162636
828,0.163651
819,0.163947
810,0.165628
801,0.168005
792,0.170217
783,0.171972
774,0.175051
765,0.178393
756,0.183209
747,0.187463
738,0.189526
729,0.190253
720,0.19112
711,0.192988
702,0.193746
693,0.193242
684,0.191717
675,0.190174
666,0.188463
657,0.187313
648,0.186129
639,0.18506
630,0.183882
621,0.183277
612,0.183079
603,0.184379
594,0.186723
585,0.188282
576,0.189011
567,0.192219
558,0.196667
549,0.197104
540,0.195946
531,0.199138
522,0.202107
513,0.202472
504,0.204781
495,0.209812
486,0.209141
477,0.208411
468,0.213068
459,0.211885
450,0.212083
441,0.215657
432,0.217889
423,0.222085
414,0.22379
405,0.22795
396,0.232678
387,0.236444
378,0.242393
369,0.249704
360,0.254906
351,0.264652
342,0.27014
333,0.280858
324,0.290886
315,0.306749
306,0.325606
297,0.34767
288,0.371688
279,0.39154
270,0.400513
261,0.394385
252,0.378661
243,0.34797
234,0.318514
225,0.308916
216,0.405828
207,0.574583
200,0.554774

File: Dodecane_KIT_Vac_350.txt
Dodecane_KIT_Vac_350
Wavelength (nm),Abs
2655,0.075601
2646,0.0793386
2637,0.0781374
2628,0.0765082
2619,0.0786101
2610,0.0760556
2601,0.0781064
2592,0.0798792
2583,0.0797381
2574,0.0788821
2565,0.0791217
2556,0.0800369
2547,0.0801608
2538,0.0800236
2529,0.0807427
2520,0.081093
2511,0.0811286
2502,0.081856
2493,0.082051
2484,0.0824445
2475,0.0824154
2466,0.0827296
2457,0.0830285
2448,0.0836434
2439,0.0839707
2430,0.0842317
2421,0.0844976
2412,0.0849471
2403,0.0854706
2394,0.0863769
2385,0.0867166
2376,0.0874989
2367,0.0879588
2358,0.0889869
2349,0.0896267
2340,0.0903288
2331,0.0911553
2322,0.0920613
2313,0.0929847
2304,0.0944586
2295,0.0951653
2286,0.0962037
2277,0.0973858
2268,0.0988024
2259,0.10061
2250,0.101594
2241,0.103006
2232,0.104605
2223,0.10625
2214,0.107948
2205,0.110124
2196,0.111656
2187,0.11347
2178,0.115361
2169,0.1173
2160,0.119569
2151,0.121531
2142,0.124103
2133,0.126369
2124,0.128936
2115,0.131436
2106,0.134204
2097,0.137277
2088,0.140228
2079,0.143455
2070,0.146516
2061,0.150076
2052,0.153606
2043,0.157109
2034,0.160783
2025,0.164356
2016,0.167978
2007,0.171624
1998,0.175234
1989,0.178647
1980,0.181952
1971,0.185238
1962,0.188359
1953,0.191514
1944,0.194774
1935,0.197853
1926,0.201068
1917,0.204298
1908,0.207418
1899,0.211114
1890,0.214212
1881,0.216921
1872,0.21944
1863,0.221696
1854,0.22346
1845,0.224377
1836,0.225103
1827,0.224859
1818,0.224058
1809,0.222893
1800,0.220928
1791,0.218806
1782,0.216356
1773,0.21354
1764,0.2107
1755,0.207822
1746,0.204794
1737,0.201801
1728,0.19866
1719,0.19536
1710,0.191971
1701,0.188389
1692,0.184648
1683,0.180872
1674,0.177223
1665,0.173639
1656,0.169905
1647,0.166404
1638,0.162922
1629,0.159385
1620,0.156217
1611,0.153051
1602,0.150229
1593,0.147766
1584,0.14554
1575,0.143649
1566,0.142002
1557,0.140485
1548,0.139222
1539,0.138109
1530,0.137105
1521,0.136351
1512,0.135597
1503,0.135017
1494,0.134458
1485,0.133969
1476,0.133639
1467,0.133352
1458,0.132998
1449,0.132741
1440,0.132537
1431,0.132343
1422,0.132066
1413,0.131852
1404,0.131686
1395,0.131573
1386,0.13126
1377,0.131207
1368,0.130855
1359,0.130648
1350,0.130591
1341,0.130498
1332,0.130535
1323,0.130568
1314,0.130769
1305,0.131106
1296,0.13142
1287,0.131919
1278,0.132546
1269,0.13338
1260,0.134356
1251,0.135499
1242,0.13686
1233,0.138341
1224,0.14003
1215,0.141939
1206,0.144207
1197,0.14646
1188,0.149206
1179,0.152033
1170,0.154922
1161,0.157825
1152,0.160945
1143,0.164444
1134,0.168594
1125,0.173352
1116,0.178466
1107,0.183377
1098,0.187483
1089,0.19032
1080,0.192088
1071,0.193769
1062,0.195913
1053,0.198911
1044,0.202351
1035,0.205111
1026,0.20642
1017,0.206099
1008,0.204508
999,0.202368
990,0.199425
981,0.196164
972,0.193038
963,0.190374
954,0.18776
945,0.184816
936,0.181357
927,0.177961
918,0.17442
909,0.170658
900,0.167399
891,0.164687
882,0.168649
873,0.162551
864,0.161546
855,0.158315
846,0.157754
837,0.158189
828,0.158902
819,0.160014
810,0.161687
801,0.163481
792,0.166029
783,0.167948
774,0.170488
765,0.174318
756,0.179212
747,0.183327
738,0.185188
729,0.18602
720,0.186822
711,0.18863
702,0.189683
693,0.189048
684,0.187519
675,0.186132
666,0.184289
657,0.18292
648,0.181853
639,0.180672
630,0.179513
621,0.178631
612,0.178676
603,0.179852
594,0.182246
585,0.183725
576,0.184484
567,0.187812
558,0.192002
549,0.192665
540,0.191662
531,0.194496
522,0.197456
513,0.198129
504,0.200364
495,0.205405
486,0.205109
477,0.204162
468,0.208857
459,0.207632
450,0.207673
441,0.211518
432,0.213796
423,0.217855
414,0.219362
405,0.223391
396,0.228266
387,0.231726
378,0.238178
369,0.24533
360,0.250473
351,0.260144
342,0.265157
333,0.275923
324,0.286156
315,0.301945
306,0.320821
297,0.34234
288,0.366402
279,0.386576
270,0.395141
261,0.389359
252,0.372951
243,0.342357
234,0.31186
225,0.300391
216,0.396097
207,0.569351
200,0.547544

File: Dodecane_KIT_Vac_1420.txt
Dodecane_KIT_Vac_1420
Wavelength (nm),Abs
2655,0.0776337
2646,0.0805144
2637,0.0796768
2628,0.0789516
2619,0.0799204
2610,0.0798016
2601,0.0791936
2592,0.0814282
2583,0.0795233
2574,0.0807632
2565,0.0795411
2556,0.0808214
2547,0.081127
2538,0.0813409
2529,0.0814281
2520,0.0818653
2511,0.0820195
2502,0.0823323
2493,0.0824876
2484,0.0828424
2475,0.0830711
2466,0.0833113
2457,0.0837184
2448,0.0841727
2439,0.0846011
2430,0.0851112
2421,0.0853379
2412,0.0856428
2403,0.0863306
2394,0.087102
2385,0.0876248
2376,0.0881114
2367,0.0887538
2358,0.0898088
2349,0.0903914
2340,0.0912766
2331,0.0918536
2322,0.0930222
2313,0.093775
2304,0.0950315
2295,0.0962617
2286,0.0968366
2277,0.0978668
2268,0.099708
2259,0.101278
2250,0.102329
2241,0.103887
2232,0.105435
2223,0.106997
2214,0.108948
2205,0.11087
2196,0.112682
2187,0.114242
2178,0.116394
2169,0.118383
2160,0.120515
2151,0.122829
2142,0.125082
2133,0.127511
2124,0.130106
2115,0.13259
2106,0.135428
2097,0.138389
2088,0.141372
2079,0.144691
2070,0.147895
2061,0.151266
2052,0.154816
2043,0.158328
2034,0.16198
2025,0.165496
2016,0.169417
2007,0.172917
1998,0.176513
1989,0.180139
1980,0.183405
1971,0.186657
1962,0.189837
1953,0.192907
1944,0.196039
1935,0.19917
1926,0.202422
1917,0.205708
1908,0.208762
1899,0.212528
1890,0.215654
1881,0.218403
1872,0.220894
1863,0.223157
1854,0.224961
1845,0.225897
1836,0.22661
1827,0.22622
1818,0.225465
1809,0.224125
1800,0.222288
1791,0.220029
1782,0.2175
1773,0.214653
1764,0.211776
1755,0.208835
1746,0.205815
1737,0.202874
1728,0.199621
1719,0.196258
1710,0.19278
1701,0.189211
1692,0.185445
1683,0.181676
1674,0.177989
1665,0.174357
1656,0.170699
1647,0.167123
1638,0.163635
1629,0.160094
1620,0.156883
1611,0.15375
1602,0.150888
1593,0.148441
1584,0.146284
1575,0.144362
1566,0.142736
1557,0.141229
1548,0.139982
1539,0.138849
1530,0.137895
1521,0.137125
1512,0.136407
1503,0.135834
1494,0.135318
1485,0.134799
1476,0.134521
1467,0.134245
1458,0.133878
1449,0.133645
1440,0.133377
1431,0.13318
1422,0.132951
1413,0.132729
1404,0.132618
1395,0.132449
1386,0.132231
1377,0.132074
1368,0.131798
1359,0.131621
1350,0.131528
1341,0.131425
1332,0.13149
1323,0.13153
1314,0.131764
1305,0.132085
1296,0.132415
1287,0.132947
1278,0.133631
1269,0.134425
1260,0.135385
1251,0.136581
1242,0.137947
1233,0.139413
1224,0.141124
1215,0.143078
1206,0.145364
1197,0.147633
1188,0.150403
1179,0.153245
1170,0.156164
1161,0.159082
1152,0.162143
1143,0.165666
1134,0.169816
1125,0.174607
1116,0.179765
1107,0.184709
1098,0.188822
1089,0.191598
1080,0.193399
1071,0.195023
1062,0.197156
1053,0.200169
1044,0.20359
1035,0.206411
1026,0.207679
1017,0.207269
1008,0.205726
999,0.203532
990,0.200592
981,0.19721
972,0.194197
963,0.191537
954,0.188836
945,0.185873
936,0.182413
927,0.179006
918,0.175373
909,0.17165
900,0.168432
891,0.163527
882,0.169856
873,0.16588
864,0.163311
855,0.16121
846,0.160797
837,0.160794
828,0.161137
819,0.162138
810,0.163699
801,0.165891
792,0.168112
783,0.170276
774,0.173071
765,0.176583
756,0.181541
747,0.185269
738,0.187446
729,0.187966
720,0.189243
711,0.190784
702,0.191922
693,0.191431
684,0.189951
675,0.188431
666,0.186683
657,0.185409
648,0.184309
639,0.183241
630,0.18209
621,0.181244
612,0.181139
603,0.182593
594,0.184852
585,0.186294
576,0.187062
567,0.190223
558,0.194503
549,0.194964
540,0.194022
531,0.19691
522,0.199956
513,0.200451
504,0.202478
495,0.207639
486,0.207205
477,0.206437
468,0.210975
459,0.20978
450,0.210084
441,0.21377
432,0.216026
423,0.220149
414,0.221881
405,0.225737
396,0.230561
387,0.234081
378,0.240314
369,0.247513
360,0.252666
351,0.262485
342,0.267963
333,0.277744
324,0.288791
315,0.304692
306,0.323438
297,0.34447
288,0.368976
279,0.388905
270,0.397981
261,0.391777
252,0.376045
243,0.345477
234,0.31611
225,0.304922
216,0.401894
207,0.572542
200,0.553455