Folder: SWCNTs/AbsorptionAnalysis/Absorption_Test_BackgroundSubstractions/DodecaneCryostatFilm

File: Dodecane_KIT_Air_B.txt
Dodecane_KIT_Air_B
Wavelength (nm),Abs
2655,0.0855034
2646,0.0839519
2637,0.0845325
2628,0.0849138
2619,0.0861016
2610,0.0861447
2601,0.0846798
2592,0.0850203
2583,0.0833989
2574,0.0826826
2565,0.0830664
2556,0.0843909
2547,0.0850591
2538,0.0842999
2529,0.0843869
2520,0.0846071
2511,0.0847494
2502,0.0852071
2493,0.0851892
2484,0.0854918
2475,0.0857604
2466,0.0861588
2457,0.0866063
2448,0.087055
2439,0.0875774
2430,0.088018
2421,0.0883165
2412,0.0889399
2403,0.0896731
2394,0.0902813
2385,0.0907839
2376,0.0913038
2367,0.0922497
2358,0.0932397
2349,0.0938083
2340,0.0947643
2331,0.0955134
2322,0.096579
2313,0.0977102
2304,0.0987105
2295,0.0997862
2286,0.100701
2277,0.101601
2268,0.103384
2259,0.104743
2250,0.105948
2241,0.107796
2232,0.1097
2223,0.111509
2214,0.113269
2205,0.115362
2196,0.116962
2187,0.119465
2178,0.121304
2169,0.123642
2160,0.125518
2151,0.128064
2142,0.130508
2133,0.132976
2124,0.135702
2115,0.138336
2106,0.141409
2097,0.14452
2088,0.147384
2079,0.150966
2070,0.154252
2061,0.158005
2052,0.161595
2043,0.165472
2034,0.169025
2025,0.173071
2016,0.176988
2007,0.180725
1998,0.184425
1989,0.188144
1980,0.191641
1971,0.195023
1962,0.198245
1953,0.20151
1944,0.204901
1935,0.208164
1926,0.211261
1917,0.214713
1908,0.217906
1899,0.221509
1890,0.224705
1881,0.227327
1872,0.22962
1863,0.231969
1854,0.233375
1845,0.234309
1836,0.234885
1827,0.234081
1818,0.233254
1809,0.231829
1800,0.229615
1791,0.227172
1782,0.224464
1773,0.221335
1764,0.218294
1755,0.214986
1746,0.211759
1737,0.208566
1728,0.205135
1719,0.201645
1710,0.197881
1701,0.194159
1692,0.190108
1683,0.186261
1674,0.1823
1665,0.17858
1656,0.174755
1647,0.170929
1638,0.167336
1629,0.163795
1620,0.160567
1611,0.157396
1602,0.154438
1593,0.151862
1584,0.149655
1575,0.14772
1566,0.146024
1557,0.144459
1548,0.143244
1539,0.142116
1530,0.141141
1521,0.140378
1512,0.139622
1503,0.139127
1494,0.138508
1485,0.138031
1476,0.137778
1467,0.137453
1458,0.13709
1449,0.13688
1440,0.136574
1431,0.136401
1422,0.136017
1413,0.135853
1404,0.135829
1395,0.135642
1386,0.135442
1377,0.135099
1368,0.134936
1359,0.134758
1350,0.134595
1341,0.134494
1332,0.134588
1323,0.13464
1314,0.134874
1305,0.135097
1296,0.135596
1287,0.136098
1278,0.136789
1269,0.137748
1260,0.138769
1251,0.13986
1242,0.14146
1233,0.142974
1224,0.144764
1215,0.146736
1206,0.149043
1197,0.151316
1188,0.15425
1179,0.157127
1170,0.160087
1161,0.162999
1152,0.166131
1143,0.169747
1134,0.173895
1125,0.178651
1116,0.183874
1107,0.188851
1098,0.192984
1089,0.195745
1080,0.197507
1071,0.198957
1062,0.201192
1053,0.204226
1044,0.207619
1035,0.210306
1026,0.211472
1017,0.211161
1008,0.20951
999,0.207264
990,0.204298
981,0.200623
972,0.197585
963,0.19494
954,0.192366
945,0.189229
936,0.185698
927,0.182421
918,0.178784
909,0.175279
900,0.172002
891,0.171821
882,0.169997
873,0.168028
864,0.166467
855,0.16423
846,0.163296
837,0.164
828,0.164045
819,0.165368
810,0.166987
801,0.168888
792,0.171246
783,0.173421
774,0.175941
765,0.179954
756,0.185064
747,0.189058
738,0.190937
729,0.191668
720,0.192433
711,0.19443
702,0.195415
693,0.194838
684,0.193308
675,0.191829
666,0.190191
657,0.188636
648,0.187716
639,0.186587
630,0.185389
621,0.184659
612,0.184486
603,0.185753
594,0.188464
585,0.190017
576,0.19065
567,0.19374
558,0.198411
549,0.198934
540,0.197678
531,0.200825
522,0.20377
513,0.204213
504,0.206613
495,0.211733
486,0.211221
477,0.21054
468,0.215134
459,0.213882
450,0.213961
441,0.218023
432,0.219858
423,0.224106
414,0.225863
405,0.229942
396,0.234745
387,0.238192
378,0.24422
369,0.251647
360,0.256857
351,0.266296
342,0.272166
333,0.282768
324,0.293529
315,0.309501
306,0.328332
297,0.349846
288,0.37385
279,0.39404
270,0.402624
261,0.396504
252,0.380741
243,0.350395
234,0.322158
225,0.312773
216,0.411618
207,0.582649
200,0.567973

File: Dodecane_KIT_HotWater_A.txt
Dodecane_KIT_HotWater_A
Wavelength (nm),Abs
2655,0.078731
2646,0.0804083
2637,0.0811174
2628,0.0793327
2619,0.0823587
2610,0.0800456
2601,0.0806576
2592,0.0821747
2583,0.0820411
2574,0.0822989
2565,0.081856
2556,0.0818365
2547,0.0820328
2538,0.0818135
2529,0.0821695
2520,0.0825128
2511,0.0826612
2502,0.0830885
2493,0.0833785
2484,0.0837672
2475,0.0837745
2466,0.0840289
2457,0.0844389
2448,0.0848318
2439,0.0852599
2430,0.0856728
2421,0.0860124
2412,0.0864443
2403,0.0870435
2394,0.0877952
2385,0.0882963
2376,0.088862
2367,0.0894307
2358,0.0905688
2349,0.0909991
2340,0.0919778
2331,0.09259
2322,0.0936168
2313,0.0945785
2304,0.0959089
2295,0.0969653
2286,0.0975356
2277,0.0984556
2268,0.100487
2259,0.102085
2250,0.103034
2241,0.104327
2232,0.106096
2223,0.107734
2214,0.109432
2205,0.111771
2196,0.113325
2187,0.115011
2178,0.117067
2169,0.118998
2160,0.121471
2151,0.123546
2142,0.125812
2133,0.128155
2124,0.130899
2115,0.133385
2106,0.13621
2097,0.13908
2088,0.142106
2079,0.145285
2070,0.148414
2061,0.151954
2052,0.155529
2043,0.159009
2034,0.16263
2025,0.166274
2016,0.170003
2007,0.173552
1998,0.177241
1989,0.180754
1980,0.184092
1971,0.187401
1962,0.190474
1953,0.193572
1944,0.196776
1935,0.199947
1926,0.203166
1917,0.206383
1908,0.209417
1899,0.213179
1890,0.216332
1881,0.219011
1872,0.221562
1863,0.22384
1854,0.225605
1845,0.226505
1836,0.227234
1827,0.22682
1818,0.22619
1809,0.22494
1800,0.223
1791,0.220683
1782,0.218178
1773,0.215319
1764,0.212432
1755,0.209524
1746,0.206463
1737,0.203468
1728,0.200252
1719,0.196917
1710,0.193407
1701,0.189806
1692,0.186069
1683,0.182321
1674,0.178581
1665,0.174982
1656,0.171313
1647,0.167733
1638,0.164268
1629,0.160714
1620,0.157484
1611,0.154411
1602,0.151564
1593,0.149135
1584,0.146937
1575,0.14501
1566,0.143363
1557,0.141892
1548,0.140671
1539,0.139532
1530,0.13859
1521,0.137788
1512,0.137037
1503,0.136564
1494,0.135969
1485,0.135481
1476,0.135186
1467,0.134919
1458,0.134537
1449,0.134358
1440,0.134082
1431,0.133883
1422,0.133605
1413,0.133438
1404,0.133311
1395,0.133128
1386,0.132911
1377,0.132761
1368,0.132488
1359,0.13234
1350,0.132223
1341,0.132157
1332,0.132149
1323,0.132274
1314,0.132452
1305,0.13278
1296,0.133111
1287,0.133633
1278,0.134314
1269,0.135151
1260,0.136138
1251,0.13729
1242,0.138671
1233,0.140182
1224,0.141896
1215,0.143852
1206,0.146077
1197,0.148397
1188,0.151131
1179,0.153968
1170,0.156909
1161,0.159809
1152,0.162927
1143,0.166449
1134,0.170597
1125,0.175395
1116,0.180515
1107,0.185461
1098,0.189566
1089,0.19236
1080,0.194143
1071,0.195754
1062,0.198
1053,0.200974
1044,0.204388
1035,0.207148
1026,0.208427
1017,0.208096
1008,0.206518
999,0.20431
990,0.201381
981,0.197944
972,0.194954
963,0.192278
954,0.189655
945,0.186673
936,0.183136
927,0.179778
918,0.176255
909,0.172481
900,0.169168
891,0.160816
882,0.167848
873,0.164803
864,0.164108
855,0.161938
846,0.160877
837,0.16073
828,0.162074
819,0.162671
810,0.164745
801,0.16635
792,0.168594
783,0.170499
774,0.173183
765,0.177244
756,0.182056
747,0.1858
738,0.187972
729,0.188586
720,0.189546
711,0.191334
702,0.192445
693,0.191884
684,0.19026
675,0.18887
666,0.187002
657,0.185668
648,0.184555
639,0.183527
630,0.182238
621,0.181557
612,0.18145
603,0.1828
594,0.18518
585,0.186656
576,0.187466
567,0.190698
558,0.194815
549,0.195539
540,0.194391
531,0.197366
522,0.200388
513,0.200848
504,0.203217
495,0.208214
486,0.207901
477,0.20714
468,0.211888
459,0.210347
450,0.210435
441,0.214435
432,0.216771
423,0.22072
414,0.222391
405,0.226223
396,0.231355
387,0.234867
378,0.240803
369,0.247968
360,0.253342
351,0.263035
342,0.268524
333,0.278647
324,0.288969
315,0.305464
306,0.324193
297,0.345954
288,0.369869
279,0.389784
270,0.398597
261,0.392716
252,0.377065
243,0.346491
234,0.317275
225,0.305924
216,0.402619
207,0.574614
200,0.554666

File: Dodecane_KIT_N2_C.txt
Dodecane_KIT_N2_C
Wavelength (nm),Abs
2655,0.0766448
2646,0.0799249
2637,0.0793499
2628,0.0774163
2619,0.0788981
2610,0.077743
2601,0.0789996
2592,0.0801543
2583,0.0806291
2574,0.0807441
2565,0.0800158
2556,0.080751
2547,0.0806156
2538,0.0809199
2529,0.0812492
2520,0.0813913
2511,0.0816709
2502,0.0821228
2493,0.082469
2484,0.0829224
2475,0.0827194
2466,0.0832108
2457,0.0833703
2448,0.0839837
2439,0.0843651
2430,0.0847468
2421,0.0849004
2412,0.0853983
2403,0.0860349
2394,0.0867521
2385,0.0873474
2376,0.0879798
2367,0.0884813
2358,0.0894334
2349,0.0902092
2340,0.090831
2331,0.0917635
2322,0.0925341
2313,0.0934726
2304,0.0949237
2295,0.0956497
2286,0.0964898
2277,0.0977793
2268,0.0995
2259,0.101082
2250,0.102431
2241,0.103682
2232,0.105084
2223,0.106919
2214,0.108788
2205,0.110881
2196,0.112357
2187,0.114169
2178,0.116075
2169,0.118083
2160,0.120282
2151,0.12238
2142,0.124904
2133,0.127215
2124,0.129672
2115,0.132325
2106,0.135082
2097,0.138103
2088,0.140997
2079,0.144346
2070,0.147479
2061,0.151067
2052,0.154706
2043,0.158124
2034,0.161793
2025,0.165344
2016,0.169289
2007,0.172749
1998,0.176263
1989,0.180017
1980,0.183323
1971,0.186625
1962,0.189664
1953,0.19283
1944,0.195981
1935,0.199167
1926,0.202384
1917,0.205603
1908,0.208875
1899,0.212536
1890,0.215667
1881,0.218351
1872,0.22099
1863,0.223256
1854,0.225099
1845,0.225947
1836,0.226459
1827,0.226199
1818,0.225479
1809,0.224109
1800,0.22233
1791,0.220053
1782,0.217526
1773,0.214676
1764,0.21181
1755,0.208867
1746,0.205884
1737,0.202787
1728,0.199657
1719,0.196243
1710,0.192793
1701,0.189141
1692,0.18536
1683,0.181676
1674,0.177898
1665,0.174308
1656,0.170561
1647,0.167037
1638,0.163526
1629,0.160018
1620,0.156747
1611,0.153637
1602,0.150786
1593,0.148268
1584,0.146073
1575,0.144137
1566,0.142506
1557,0.141077
1548,0.139775
1539,0.138658
1530,0.137694
1521,0.136882
1512,0.136208
1503,0.135643
1494,0.135121
1485,0.134548
1476,0.134278
1467,0.134026
1458,0.13364
1449,0.133421
1440,0.133119
1431,0.133027
1422,0.1327
1413,0.132539
1404,0.132388
1395,0.13225
1386,0.131971
1377,0.131878
1368,0.131536
1359,0.131331
1350,0.131264
1341,0.131183
1332,0.131221
1323,0.131294
1314,0.131515
1305,0.131804
1296,0.132152
1287,0.132676
1278,0.133351
1269,0.134169
1260,0.135146
1251,0.13632
1242,0.137684
1233,0.139178
1224,0.140889
1215,0.142825
1206,0.145069
1197,0.147376
1188,0.150137
1179,0.152972
1170,0.155878
1161,0.158811
1152,0.161883
1143,0.165435
1134,0.169549
1125,0.174353
1116,0.179451
1107,0.184429
1098,0.188527
1089,0.191356
1080,0.193133
1071,0.194721
1062,0.196923
1053,0.199887
1044,0.203321
1035,0.206055
1026,0.207428
1017,0.207043
1008,0.205475
999,0.203293
990,0.200323
981,0.196985
972,0.193987
963,0.191246
954,0.188656
945,0.185703
936,0.18221
927,0.178712
918,0.175413
909,0.17173
900,0.168568
891,0.164831
882,0.166181
873,0.165119
864,0.162694
855,0.159081
846,0.159153
837,0.159055
828,0.160161
819,0.161376
810,0.162863
801,0.164877
792,0.167266
783,0.169019
774,0.17193
765,0.175754
756,0.180458
747,0.184672
738,0.186225
729,0.187275
720,0.188088
711,0.189871
702,0.190998
693,0.190283
684,0.188916
675,0.187498
666,0.185645
657,0.184422
648,0.183199
639,0.182101
630,0.180971
621,0.180107
612,0.180208
603,0.181419
594,0.183707
585,0.185211
576,0.186136
567,0.189143
558,0.193426
549,0.194168
540,0.193023
531,0.195956
522,0.199206
513,0.199467
504,0.20178
495,0.206937
486,0.206613
477,0.205873
468,0.210625
459,0.209234
450,0.20925
441,0.213123
432,0.21542
423,0.219587
414,0.221262
405,0.225308
396,0.230073
387,0.233527
378,0.239835
369,0.247194
360,0.252108
351,0.262118
342,0.267615
333,0.27802
324,0.287947
315,0.304066
306,0.322851
297,0.343879
288,0.368128
279,0.388768
270,0.397483
261,0.391451
252,0.375488
243,0.344602
234,0.315307
225,0.303902
216,0.399247
207,0.572633
200,0.551992

File: Dodecane_KIT_Temp_50.txt
Dodecane_KIT_Temp_50
Wavelength (nm),Abs
2655,0.077809
2646,0.0788847
2637,0.0800956
2628,0.0778403
2619,0.0816768
2610,0.0784521
2601,0.0796899
2592,0.0806696
2583,0.0809154
2574,0.0822487
2565,0.081627
2556,0.0812212
2547,0.0816082
2538,0.0816178
2529,0.0822099
2520,0.0824983
2511,0.0826822
2502,0.0833423
2493,0.0832261
2484,0.0837428
2475,0.0837945
2466,0.0840422
2457,0.0845685
2448,0.0848021
2439,0.0854442
2430,0.0857157
2421,0.0858685
2412,0.0863844
2403,0.0870711
2394,0.0876683
2385,0.0882795
2376,0.08886
2367,0.0894936
2358,0.0904939
2349,0.0911048
2340,0.0918266
2331,0.0926284
2322,0.0936019
2313,0.0944668
2304,0.0958253
2295,0.0967456
2286,0.0975844
2277,0.0987798
2268,0.10028
2259,0.102204
2250,0.103164
2241,0.104514
2232,0.106078
2223,0.107748
2214,0.109491
2205,0.111792
2196,0.113511
2187,0.115033
2178,0.117048
2169,0.11896
2160,0.121152
2151,0.12342
2142,0.125811
2133,0.128237
2124,0.13073
2115,0.133386
2106,0.136132
2097,0.139102
2088,0.142052
2079,0.14528
2070,0.148495
2061,0.152146
2052,0.155722
2043,0.159193
2034,0.16279
2025,0.166473
2016,0.170178
2007,0.17377
1998,0.177497
1989,0.180989
1980,0.184276
1971,0.187733
1962,0.190766
1953,0.193865
1944,0.197044
1935,0.200262
1926,0.20346
1917,0.206672
1908,0.209963
1899,0.213586
1890,0.216659
1881,0.219404
1872,0.221954
1863,0.224278
1854,0.226076
1845,0.226903
1836,0.227503
1827,0.22716
1818,0.226507
1809,0.225169
1800,0.223352
1791,0.221053
1782,0.218519
1773,0.215642
1764,0.212788
1755,0.209845
1746,0.206814
1737,0.203788
1728,0.200486
1719,0.197217
1710,0.193726
1701,0.190127
1692,0.186323
1683,0.182559
1674,0.178759
1665,0.175217
1656,0.171461
1647,0.167947
1638,0.164393
1629,0.160908
1620,0.157688
1611,0.154538
1602,0.151662
1593,0.149262
1584,0.147065
1575,0.145112
1566,0.14341
1557,0.141979
1548,0.140735
1539,0.139615
1530,0.13864
1521,0.137885
1512,0.137153
1503,0.136619
1494,0.136094
1485,0.135595
1476,0.135239
1467,0.13498
1458,0.134645
1449,0.134426
1440,0.134158
1431,0.134014
1422,0.13373
1413,0.133548
1404,0.133355
1395,0.133271
1386,0.132925
1377,0.132934
1368,0.132523
1359,0.132406
1350,0.132285
1341,0.132246
1332,0.132305
1323,0.132363
1314,0.132523
1305,0.132879
1296,0.133174
1287,0.133743
1278,0.134406
1269,0.135228
1260,0.136238
1251,0.137427
1242,0.138728
1233,0.1403
1224,0.141973
1215,0.143919
1206,0.146134
1197,0.148493
1188,0.151196
1179,0.154103
1170,0.156977
1161,0.159906
1152,0.162976
1143,0.1665
1134,0.170626
1125,0.175438
1116,0.180562
1107,0.185535
1098,0.189613
1089,0.192483
1080,0.194241
1071,0.195839
1062,0.198006
1053,0.200972
1044,0.204465
1035,0.2072
1026,0.208606
1017,0.208193
1008,0.206682
999,0.204394
990,0.201474
981,0.198138
972,0.195051
963,0.192393
954,0.189747
945,0.186836
936,0.183368
927,0.179908
918,0.176295
909,0.172706
900,0.169456
891,0.16747
882,0.168328
873,0.166048
864,0.164459
855,0.160693
846,0.160545
837,0.160345
828,0.161632
819,0.162627
810,0.164258
801,0.16618
792,0.168428
783,0.170459
774,0.173128
765,0.177135
756,0.181684
747,0.185853
738,0.187712
729,0.188514
720,0.189433
711,0.191023
702,0.192379
693,0.191684
684,0.19016
675,0.188672
666,0.186801
657,0.185489
648,0.18437
639,0.183397
630,0.182239
621,0.181604
612,0.181336
603,0.18262
594,0.18498
585,0.186518
576,0.187289
567,0.190422
558,0.194807
549,0.195447
540,0.194326
531,0.197419
522,0.200279
513,0.200835
504,0.203159
495,0.208228
486,0.207946
477,0.207048
468,0.211664
459,0.210424
450,0.210494
441,0.214527
432,0.216452
423,0.220682
414,0.222446
405,0.226714
396,0.231481
387,0.234585
378,0.240689
369,0.248172
360,0.253222
351,0.263517
342,0.268233
333,0.278578
324,0.289288
315,0.305166
306,0.323906
297,0.345512
288,0.369498
279,0.389988
270,0.398866
261,0.39255
252,0.376647
243,0.34604
234,0.316378
225,0.305222
216,0.400756
207,0.574719
200,0.554698

File: Dodecane_KIT_Temp_75.txt
Dodecane_KIT_Temp_75
Wavelength (nm),Abs
2655,0.0824666
2646,0.0816003
2637,0.0831627
2628,0.0817125
2619,0.0831474
2610,0.0843622
2601,0.0832203
2592,0.0842795
2583,0.082656
2574,0.0821992
2565,0.0813297
2556,0.0836574
2547,0.0844549
2538,0.0838588
2529,0.0840105
2520,0.0839685
2511,0.0842443
2502,0.0845874
2493,0.084953
2484,0.084904
2475,0.0851823
2466,0.0857431
2457,0.0861279
2448,0.0864135
2439,0.0868243
2430,0.0872958
2421,0.0877273
2412,0.0880974
2403,0.088817
2394,0.0894485
2385,0.0899341
2376,0.0904073
2367,0.091271
2358,0.0920607
2349,0.0926962
2340,0.0935958
2331,0.0942274
2322,0.0953897
2313,0.0963193
2304,0.0972747
2295,0.0984725
2286,0.0994861
2277,0.100545
2268,0.10209
2259,0.10341
2250,0.104782
2241,0.106119
2232,0.107788
2223,0.10943
2214,0.111496
2205,0.113431
2196,0.114978
2187,0.117207
2178,0.118824
2169,0.12129
2160,0.12316
2151,0.125448
2142,0.127695
2133,0.130114
2124,0.132703
2115,0.135276
2106,0.138118
2097,0.141019
2088,0.143925
2079,0.147074
2070,0.150343
2061,0.153938
2052,0.157353
2043,0.16099
2034,0.164515
2025,0.168115
2016,0.171826
2007,0.17541
1998,0.179164
1989,0.182526
1980,0.185808
1971,0.189215
1962,0.192293
1953,0.195331
1944,0.19843
1935,0.201711
1926,0.20483
1917,0.207938
1908,0.211188
1899,0.214696
1890,0.217989
1881,0.220511
1872,0.222966
1863,0.225325
1854,0.226925
1845,0.227806
1836,0.228808
1827,0.228161
1818,0.227418
1809,0.226188
1800,0.224232
1791,0.221967
1782,0.219352
1773,0.216574
1764,0.213626
1755,0.210689
1746,0.207722
1737,0.204637
1728,0.20143
1719,0.198162
1710,0.194692
1701,0.191059
1692,0.187258
1683,0.183584
1674,0.179889
1665,0.17633
1656,0.172658
1647,0.169023
1638,0.16554
1629,0.162085
1620,0.158892
1611,0.155805
1602,0.153037
1593,0.150572
1584,0.148403
1575,0.146586
1566,0.144882
1557,0.143465
1548,0.142164
1539,0.141131
1530,0.14016
1521,0.139339
1512,0.138603
1503,0.138087
1494,0.137624
1485,0.137039
1476,0.136782
1467,0.136488
1458,0.136131
1449,0.135913
1440,0.135658
1431,0.135514
1422,0.135197
1413,0.135017
1404,0.134899
1395,0.134787
1386,0.134549
1377,0.134326
1368,0.134162
1359,0.133923
1350,0.133814
1341,0.133742
1332,0.133825
1323,0.133907
1314,0.134124
1305,0.134404
1296,0.134757
1287,0.135301
1278,0.135942
1269,0.136827
1260,0.137809
1251,0.138959
1242,0.140361
1233,0.141895
1224,0.143561
1215,0.145581
1206,0.147799
1197,0.150109
1188,0.152875
1179,0.155732
1170,0.158593
1161,0.161557
1152,0.164725
1143,0.168251
1134,0.17239
1125,0.177134
1116,0.182245
1107,0.187176
1098,0.191313
1089,0.194107
1080,0.195937
1071,0.197571
1062,0.199759
1053,0.202769
1044,0.206143
1035,0.208914
1026,0.210155
1017,0.209794
1008,0.208245
999,0.205959
990,0.202928
981,0.199611
972,0.196565
963,0.193937
954,0.191305
945,0.188211
936,0.184832
927,0.181273
918,0.177728
909,0.174073
900,0.170848
891,0.168049
882,0.17089
873,0.16519
864,0.164972
855,0.162475
846,0.162981
837,0.163346
828,0.164132
819,0.164757
810,0.166461
801,0.168328
792,0.170692
783,0.172521
774,0.175256
765,0.179195
756,0.184019
747,0.188007
738,0.18985
729,0.190489
720,0.191505
711,0.19326
702,0.194335
693,0.193653
684,0.192115
675,0.190634
666,0.188866
657,0.18754
648,0.186492
639,0.185455
630,0.184268
621,0.183546
612,0.183468
603,0.184804
594,0.187078
585,0.188684
576,0.189439
567,0.192638
558,0.197098
549,0.197587
540,0.196582
531,0.19948
522,0.202469
513,0.20296
504,0.205237
495,0.210224
486,0.209599
477,0.209046
468,0.213622
459,0.21245
450,0.212626
441,0.216183
432,0.218561
423,0.222511
414,0.224339
405,0.228445
396,0.233363
387,0.236581
378,0.243012
369,0.249911
360,0.255299
351,0.265306
342,0.271304
333,0.281157
324,0.291938
315,0.308355
306,0.326486
297,0.348267
288,0.372285
279,0.392487
270,0.401476
261,0.395299
252,0.379109
243,0.348251
234,0.319533
225,0.310301
216,0.408201
207,0.575107
200,0.555679

File: Dodecane_KIT_Temp_85.txt
Dodecane_KIT_Temp_85
Wavelength (nm),Abs
2655,0.0837566
2646,0.0823011
2637,0.0838565
2628,0.0837422
2619,0.0849758
2610,0.085307
2601,0.0848879
2592,0.0839712
2583,0.0823012
2574,0.0807889
2565,0.0832054
2556,0.0842973
2547,0.0846816
2538,0.0841587
2529,0.0844985
2520,0.0844357
2511,0.0845313
2502,0.0851844
2493,0.0851298
2484,0.0856167
2475,0.0857014
2466,0.0861178
2457,0.0865778
2448,0.0869425
2439,0.0874005
2430,0.0878223
2421,0.0882047
2412,0.0887033
2403,0.089362
2394,0.0899937
2385,0.0904164
2376,0.0909772
2367,0.0919064
2358,0.0926284
2349,0.0933557
2340,0.0940954
2331,0.0949169
2322,0.0958821
2313,0.0970122
2304,0.0978717
2295,0.0990969
2286,0.100067
2277,0.101065
2268,0.10247
2259,0.103993
2250,0.105332
2241,0.106586
2232,0.108645
2223,0.110226
2214,0.112171
2205,0.11398
2196,0.115851
2187,0.117897
2178,0.119754
2169,0.122013
2160,0.123877
2151,0.126351
2142,0.128682
2133,0.131034
2124,0.133614
2115,0.136074
2106,0.138886
2097,0.142028
2088,0.1448
2079,0.148076
2070,0.151284
2061,0.154807
2052,0.158307
2043,0.161911
2034,0.165506
2025,0.169215
2016,0.172918
2007,0.176435
1998,0.180133
1989,0.183618
1980,0.186957
1971,0.190341
1962,0.19337
1953,0.196593
1944,0.199665
1935,0.202885
1926,0.205959
1917,0.209285
1908,0.212509
1899,0.215931
1890,0.219175
1881,0.221756
1872,0.224086
1863,0.226504
1854,0.228095
1845,0.229106
1836,0.229844
1827,0.22928
1818,0.228651
1809,0.227258
1800,0.225385
1791,0.222959
1782,0.220482
1773,0.217638
1764,0.214595
1755,0.211679
1746,0.20862
1737,0.205632
1728,0.202321
1719,0.199047
1710,0.19555
1701,0.191946
1692,0.188141
1683,0.184385
1674,0.180654
1665,0.17713
1656,0.173396
1647,0.169821
1638,0.166328
1629,0.162826
1620,0.15963
1611,0.156463
1602,0.153723
1593,0.151272
1584,0.149148
1575,0.147258
1566,0.145627
1557,0.144176
1548,0.142919
1539,0.141835
1530,0.14083
1521,0.140087
1512,0.13931
1503,0.138797
1494,0.138271
1485,0.137824
1476,0.137497
1467,0.137176
1458,0.136868
1449,0.136575
1440,0.13637
1431,0.136195
1422,0.135924
1413,0.135711
1404,0.135583
1395,0.135523
1386,0.135273
1377,0.135021
1368,0.134834
1359,0.134615
1350,0.134502
1341,0.134498
1332,0.134481
1323,0.134587
1314,0.134795
1305,0.135078
1296,0.135462
1287,0.136003
1278,0.136738
1269,0.137536
1260,0.138569
1251,0.139758
1242,0.141111
1233,0.142627
1224,0.144391
1215,0.14636
1206,0.14859
1197,0.150956
1188,0.153704
1179,0.156574
1170,0.159484
1161,0.162449
1152,0.165569
1143,0.169134
1134,0.173283
1125,0.178079
1116,0.183174
1107,0.188148
1098,0.19221
1089,0.195007
1080,0.196882
1071,0.198542
1062,0.200792
1053,0.203781
1044,0.20718
1035,0.209844
1026,0.211104
1017,0.210689
1008,0.209132
999,0.206884
990,0.203754
981,0.200439
972,0.197384
963,0.194802
954,0.192079
945,0.189006
936,0.18558
927,0.182017
918,0.178402
909,0.17477
900,0.171748
891,0.172897
882,0.174199
873,0.168818
864,0.165593
855,0.164108
846,0.163723
837,0.16373
828,0.165053
819,0.165553
810,0.167685
801,0.169527
792,0.171736
783,0.17374
774,0.176593
765,0.180427
756,0.185159
747,0.189187
738,0.190849
729,0.191851
720,0.192835
711,0.194594
702,0.195404
693,0.194821
684,0.193475
675,0.191863
666,0.190103
657,0.188859
648,0.187796
639,0.186695
630,0.185587
621,0.184843
612,0.184805
603,0.186137
594,0.188462
585,0.189931
576,0.190782
567,0.194039
558,0.198415
549,0.198759
540,0.197969
531,0.200824
522,0.203813
513,0.20418
504,0.206505
495,0.211521
486,0.210975
477,0.210124
468,0.214649
459,0.213296
450,0.213871
441,0.217783
432,0.219815
423,0.223783
414,0.225615
405,0.229761
396,0.23457
387,0.238197
378,0.244385
369,0.251488
360,0.256632
351,0.266437
342,0.271863
333,0.28284
324,0.293289
315,0.309685
306,0.328319
297,0.35022
288,0.37385
279,0.394331
270,0.402948
261,0.396574
252,0.380587
243,0.350158
234,0.320797
225,0.312575
216,0.412248
207,0.57706
200,0.558188