Folder: SWCNTs/AbsorptionAnalysis/Absorption_Test_BackgroundSubstractions/DodecaneCryostatFilm (part 2)

File: Dodecane_KIT_Vac_1200.txt
Dodecane_KIT_Vac_1200
Wavelength (nm),Abs
2655,0.0766928
2646,0.0800312
2637,0.0792567
2628,0.0769398
2619,0.0794835
2610,0.0778692
2601,0.078476
2592,0.0800697
2583,0.0807393
2574,0.080444
2565,0.079465
2556,0.0805006
2547,0.0804129
2538,0.0806815
2529,0.0812229
2520,0.0815147
2511,0.0815111
2502,0.0821711
2493,0.0823972
2484,0.0829256
2475,0.0828871
2466,0.0832346
2457,0.0836568
2448,0.0839337
2439,0.0844183
2430,0.0848554
2421,0.0849933
2412,0.0854657
2403,0.0861165
2394,0.0867166
2385,0.0873881
2376,0.087962
2367,0.0884676
2358,0.089644
2349,0.0901991
2340,0.0909027
2331,0.0917781
2322,0.0925582
2313,0.0935903
2304,0.0950134
2295,0.0958208
2286,0.0966653
2277,0.0977931
2268,0.0997702
2259,0.101018
2250,0.102312
2241,0.10354
2232,0.105309
2223,0.106886
2214,0.108527
2205,0.110877
2196,0.112388
2187,0.113891
2178,0.116081
2169,0.118106
2160,0.120334
2151,0.122518
2142,0.124873
2133,0.12717
2124,0.12972
2115,0.132261
2106,0.135114
2097,0.138057
2088,0.141
2079,0.144362
2070,0.147516
2061,0.151124
2052,0.154518
2043,0.158097
2034,0.161814
2025,0.16541
2016,0.169206
2007,0.172611
1998,0.176349
1989,0.179957
1980,0.183127
1971,0.186557
1962,0.189561
1953,0.192805
1944,0.195927
1935,0.199015
1926,0.202382
1917,0.205544
1908,0.208696
1899,0.212478
1890,0.215493
1881,0.218374
1872,0.220912
1863,0.223195
1854,0.224966
1845,0.225879
1836,0.226597
1827,0.226233
1818,0.225432
1809,0.224131
1800,0.222276
1791,0.220046
1782,0.217486
1773,0.214627
1764,0.211805
1755,0.208932
1746,0.205815
1737,0.202851
1728,0.199608
1719,0.196334
1710,0.192816
1701,0.189253
1692,0.185454
1683,0.181683
1674,0.177935
1665,0.174335
1656,0.170572
1647,0.167078
1638,0.163512
1629,0.160051
1620,0.156834
1611,0.153713
1602,0.150854
1593,0.148325
1584,0.146111
1575,0.144234
1566,0.142529
1557,0.141104
1548,0.139809
1539,0.13873
1530,0.137734
1521,0.136951
1512,0.136248
1503,0.135677
1494,0.135152
1485,0.13464
1476,0.134321
1467,0.13405
1458,0.133676
1449,0.133471
1440,0.133191
1431,0.133029
1422,0.132759
1413,0.132562
1404,0.132381
1395,0.132265
1386,0.131936
1377,0.131902
1368,0.131585
1359,0.131375
1350,0.131285
1341,0.131216
1332,0.1312702
1323,0.131356
1314,0.131513
1305,0.131844
1296,0.132183
1287,0.132692
1278,0.133385
1269,0.13417
1260,0.135173
1251,0.136318
1242,0.137688
1233,0.139207
1224,0.140914
1215,0.142899
1206,0.145101
1197,0.147402
1188,0.150157
1179,0.152985
1170,0.155913
1161,0.158796
1152,0.16186
1143,0.165423
1134,0.169542
1125,0.174367
1116,0.179474
1107,0.184439
1098,0.188563
1089,0.191349
1080,0.193095
1071,0.194732
1062,0.196902
1053,0.199922
1044,0.203351
1035,0.206116
1026,0.207421
1017,0.207076
1008,0.205522
999,0.203306
990,0.200434
981,0.197007
972,0.193999
963,0.191336
954,0.188687
945,0.185688
936,0.182206
927,0.178823
918,0.17527
909,0.171638
900,0.16842
891,0.164091
882,0.16725
873,0.16562
864,0.16134
855,0.159451
846,0.158559
837,0.159021
828,0.159845
819,0.160827
810,0.162829
801,0.164801
792,0.16715
783,0.168918
774,0.171926
765,0.17566
756,0.180144
747,0.184408
738,0.186261
729,0.187238
720,0.187935
711,0.189752
702,0.190878
693,0.190307
684,0.188762
675,0.187252
666,0.185339
657,0.18412
648,0.183048
639,0.181812
630,0.180696
621,0.179963
612,0.179926
603,0.181254
594,0.183559
585,0.184974
576,0.185812
567,0.189114
558,0.193188
549,0.194032
540,0.192965
531,0.195888
522,0.198917
513,0.199296
504,0.20179
495,0.206719
486,0.206281
477,0.205645
468,0.210254
459,0.209018
450,0.209081
441,0.212814
432,0.215243
423,0.219074
414,0.221011
405,0.224951
396,0.230009
387,0.233187
378,0.239652
369,0.246938
360,0.25207
351,0.261824
342,0.267442
333,0.277491
324,0.287622
315,0.303505
306,0.322621
297,0.343807
288,0.368452
279,0.388601
270,0.396976
261,0.391362
252,0.374943
243,0.344642
234,0.315226
225,0.303669
216,0.398625
207,0.573434
200,0.551896

File: Dodecane_KIT_Vac_1300.txt
Dodecane_KIT_Vac_1300
Wavelength (nm),Abs
2655,0.0765291
2646,0.0806533
2637,0.0788331
2628,0.0774241
2619,0.0799236
2610,0.0782172
2601,0.0792042
2592,0.0800351
2583,0.0806035
2574,0.0804236
2565,0.0809831
2556,0.0807954
2547,0.0814279
2538,0.0813397
2529,0.0809894
2520,0.0818611
2511,0.0819162
2502,0.0824462
2493,0.0825982
2484,0.0831402
2475,0.0831262
2466,0.0834521
2457,0.0837636
2448,0.0843245
2439,0.0846824
2430,0.0851647
2421,0.085436
2412,0.0857531
2403,0.0864316
2394,0.087124
2385,0.0875485
2376,0.0882921
2367,0.088847
2358,0.0899477
2349,0.0904972
2340,0.0912667
2331,0.0920509
2322,0.0929059
2313,0.0939332
2304,0.0951206
2295,0.0962595
2286,0.0969448
2277,0.0981319
2268,0.0998609
2259,0.101312
2250,0.102577
2241,0.103919
2232,0.105518
2223,0.10724
2214,0.109121
2205,0.11119
2196,0.112839
2187,0.114305
2178,0.116422
2169,0.118485
2160,0.12086
2151,0.122809
2142,0.125264
2133,0.127756
2124,0.130215
2115,0.13272
2106,0.135621
2097,0.138566
2088,0.141635
2079,0.144805
2070,0.147931
2061,0.151514
2052,0.155127
2043,0.158614
2034,0.162349
2025,0.166
2016,0.169661
2007,0.173316
1998,0.176896
1989,0.180394
1980,0.183683
1971,0.187079
1962,0.190234
1953,0.193333
1944,0.196606
1935,0.199751
1926,0.20292
1917,0.206183
1908,0.209415
1899,0.213231
1890,0.216181
1881,0.218955
1872,0.221497
1863,0.223787
1854,0.225603
1845,0.226432
1836,0.227192
1827,0.226736
1818,0.226029
1809,0.224747
1800,0.222926
1791,0.220651
1782,0.218132
1773,0.21517
1764,0.212354
1755,0.209323
1746,0.206291
1737,0.203276
1728,0.200003
1719,0.196658
1710,0.19323
1701,0.189569
1692,0.185801
1683,0.182144
1674,0.178248
1665,0.174713
1656,0.171009
1647,0.167372
1638,0.163857
1629,0.160351
1620,0.157092
1611,0.153997
1602,0.151097
1593,0.148688
1584,0.146433
1575,0.14454
1566,0.142833
1557,0.141376
1548,0.140145
1539,0.13901
1530,0.138051
1521,0.13724
1512,0.136497
1503,0.13595
1494,0.135415
1485,0.134903
1476,0.134599
1467,0.134296
1458,0.133964
1449,0.133771
1440,0.13348
1431,0.133319
1422,0.133036
1413,0.132865
1404,0.132698
1395,0.13257
1386,0.13223
1377,0.132174
1368,0.131836
1359,0.131681
1350,0.131619
1341,0.131526
1332,0.131557
1323,0.131663
1314,0.131833
1305,0.132133
1296,0.132454
1287,0.132972
1278,0.133671
1269,0.1345
1260,0.135484
1251,0.136699
1242,0.138047
1233,0.139548
1224,0.141233
1215,0.143173
1206,0.145438
1197,0.147721
1188,0.15049
1179,0.153326
1170,0.156224
1161,0.159139
1152,0.162221
1143,0.165754
1134,0.169914
1125,0.174677
1116,0.179814
1107,0.184785
1098,0.188895
1089,0.191746
1080,0.193505
1071,0.195078
1062,0.197259
1053,0.200268
1044,0.203689
1035,0.206496
1026,0.2078
1017,0.207446
1008,0.205902
999,0.203682
990,0.200717
981,0.197368
972,0.194273
963,0.191619
954,0.188931
945,0.186039
936,0.182634
927,0.179167
918,0.175674
909,0.171878
900,0.168659
891,0.162842
882,0.167535
873,0.164102
864,0.162183
855,0.160316
846,0.159554
837,0.15983
828,0.160882
819,0.161791
810,0.163555
801,0.16569
792,0.167808
783,0.169625
774,0.172295
765,0.175869
756,0.180994
747,0.184924
738,0.186975
729,0.187769
720,0.188739
711,0.19038
702,0.191613
693,0.190853
684,0.189441
675,0.187959
666,0.186088
657,0.184894
648,0.183767
639,0.182409
630,0.181423
621,0.18064
612,0.180436
603,0.1819
594,0.184272
585,0.185741
576,0.186396
567,0.189558
558,0.194014
549,0.194605
540,0.193455
531,0.196359
522,0.199513
513,0.199919
504,0.202322
495,0.207357
486,0.207149
477,0.206278
468,0.210874
459,0.20949
450,0.209691
441,0.213692
432,0.21556
423,0.219767
414,0.221556
405,0.225476
396,0.23061
387,0.2339
378,0.240416
369,0.247561
360,0.252503
351,0.262236
342,0.26762
333,0.277618
324,0.288651
315,0.304758
306,0.322857
297,0.344318
288,0.368256
279,0.38895
270,0.397502
261,0.391948
252,0.375899
243,0.345158
234,0.314982
225,0.30442
216,0.399142
207,0.573506
200,0.553378