Folder: SWCNTs/AbsorptionAnalysis/AbsorptionBGSubstraction_Pfolh2017/DodecaneCryostatFilm

File: Dodecane_KIT_Temp_50_B.txt
Dodecane_KIT_Temp_50_B
Wavelength (nm),Abs
2655,0.0805255
2646,0.0789577
2637,0.0806357
2628,0.0792296
2619,0.081625
2610,0.080905
2601,0.0808611
2592,0.0816906
2583,0.0806471
2574,0.0795854
2565,0.0794044
2556,0.0815494
2547,0.0822808
2538,0.0818773
2529,0.082231
2520,0.0822014
2511,0.0821798
2502,0.0829616
2493,0.0828925
2484,0.0832017
2475,0.0835446
2466,0.0840549
2457,0.0842844
2448,0.0845847
2439,0.0851225
2430,0.0855365
2421,0.0858019
2412,0.0863666
2403,0.0869413
2394,0.0876098
2385,0.0881688
2376,0.0886611
2367,0.0894702
2358,0.0904576
2349,0.0909718
2340,0.0918578
2331,0.0923577
2322,0.0936271
2313,0.0945035
2304,0.0956082
2295,0.0967836
2286,0.0976203
2277,0.0983085
2268,0.1003
2259,0.101544
2250,0.102838
2241,0.104263
2232,0.106022
2223,0.107702
2214,0.109634
2205,0.111708
2196,0.113076
2187,0.11522
2178,0.116936
2169,0.119197
2160,0.121183
2151,0.123536
2142,0.125831
2133,0.12811
2124,0.13078
2115,0.133339
2106,0.136103
2097,0.139064
2088,0.142017
2079,0.145234
2070,0.148353
2061,0.15191
2052,0.15537
2043,0.158964
2034,0.162469
2025,0.166218
2016,0.169863
2007,0.173369
1998,0.177115
1989,0.180524
1980,0.18378
1971,0.18717
1962,0.190079
1953,0.193253
1944,0.19644
1935,0.199601
1926,0.202733
1917,0.206092
1908,0.209162
1899,0.212737
1890,0.216006
1881,0.218487
1872,0.221053
1863,0.223264
1854,0.225001
1845,0.225972
1836,0.22662
1827,0.226193
1818,0.225608
1809,0.224301
1800,0.222376
1791,0.22007
1782,0.217648
1773,0.214733
1764,0.211928
1755,0.208866
1746,0.205957
1737,0.202935
1728,0.199722
1719,0.196444
1710,0.193011
1701,0.189399
1692,0.185666
1683,0.181919
1674,0.178161
1665,0.174618
1656,0.170947
1647,0.167323
1638,0.163882
1629,0.160347
1620,0.157192
1611,0.154114
1602,0.151296
1593,0.148863
1584,0.146673
1575,0.144827
1566,0.143184
1557,0.141711
1548,0.140429
1539,0.139361
1530,0.138351
1521,0.137555
1512,0.136851
1503,0.136303
1494,0.135749
1485,0.135244
1476,0.134968
1467,0.134655
1458,0.134308
1449,0.134072
1440,0.133848
1431,0.133688
1422,0.133374
1413,0.133213
1404,0.133098
1395,0.132925
1386,0.13274
1377,0.132501
1368,0.132265
1359,0.132082
1350,0.131975
1341,0.131928
1332,0.131913
1323,0.131986
1314,0.132199
1305,0.132523
1296,0.132868
1287,0.133393
1278,0.134067
1269,0.134898
1260,0.135871
1251,0.137043
1242,0.138416
1233,0.139924
1224,0.141644
1215,0.14358
1206,0.145811
1197,0.148143
1188,0.150905
1179,0.153759
1170,0.156621
1161,0.159574
1152,0.162636
1143,0.166165
1134,0.170373
1125,0.175116
1116,0.180225
1107,0.18515
1098,0.189263
1089,0.192049
1080,0.193884
1071,0.195515
1062,0.197708
1053,0.200725
1044,0.204094
1035,0.206844
1026,0.208097
1017,0.207776
1008,0.206185
999,0.203925
990,0.201006
981,0.197668
972,0.194594
963,0.191968
954,0.189278
945,0.186211
936,0.182842
927,0.179337
918,0.17573
909,0.172049
900,0.168675
891,0.162676
882,0.164192
873,0.164696
864,0.162385
855,0.160933
846,0.160399
837,0.160927
828,0.161105
819,0.162033
810,0.164091
801,0.166178
792,0.168476
783,0.170342
774,0.173211
765,0.176969
756,0.181708
747,0.185673
738,0.187874
729,0.188423
720,0.189395
711,0.191363
702,0.192308
693,0.191623
684,0.190128
675,0.18858
666,0.186873
657,0.185594
648,0.184596
639,0.183409
630,0.18218
621,0.181533
612,0.181441
603,0.182715
594,0.185047
585,0.186492
576,0.187347
567,0.190575
558,0.194613
549,0.195306
540,0.194355
531,0.197292
522,0.200281
513,0.200717
504,0.20298
495,0.207943
486,0.20752
477,0.206859
468,0.211453
459,0.210246
450,0.210401
441,0.214024
432,0.216333
423,0.220284
414,0.222254
405,0.226247
396,0.231093
387,0.23426
378,0.240484
369,0.247697
360,0.253244
351,0.263077
342,0.267514
333,0.278578
324,0.289285
315,0.304535
306,0.324054
297,0.345446
288,0.369419
279,0.390115
270,0.398085
261,0.391917
252,0.376529
243,0.346204
234,0.316396
225,0.306389
216,0.404138
207,0.570542
200,0.552395

File: Dodecane_KIT_Temp_98.txt
Dodecane_KIT_Temp_98
Wavelength (nm),Abs
2655,0.0840743
2646,0.0814897
2637,0.0846751
2628,0.0831777
2619,0.0836383
2610,0.0856229
2601,0.0851766
2592,0.0845793
2583,0.0847351
2574,0.0810725
2565,0.0838055
2556,0.0847592
2547,0.0851743
2538,0.0849451
2529,0.0848669
2520,0.0846965
2511,0.0850949
2502,0.0856299
2493,0.0855705
2484,0.0861377
2475,0.0861239
2466,0.0865564
2457,0.0870714
2448,0.0873401
2439,0.0879636
2430,0.0885392
2421,0.0888432
2412,0.089354
2403,0.0899234
2394,0.0904385
2385,0.0909804
2376,0.0917508
2367,0.092488
2358,0.0931619
2349,0.0941904
2340,0.0946874
2331,0.0958241
2322,0.0964074
2313,0.0978116
2304,0.098567
2295,0.099471
2286,0.100578
2277,0.101583
2268,0.103134
2259,0.104477
2250,0.105821
2241,0.107539
2232,0.109232
2223,0.111205
2214,0.11276
2205,0.114464
2196,0.116471
2187,0.118611
2178,0.120356
2169,0.122668
2160,0.124789
2151,0.127022
2142,0.129403
2133,0.131703
2124,0.134205
2115,0.136863
2106,0.139576
2097,0.142467
2088,0.145397
2079,0.148721
2070,0.151839
2061,0.155357
2052,0.158856
2043,0.162386
2034,0.165948
2025,0.16961
2016,0.173295
2007,0.176859
1998,0.180454
1989,0.183823
1980,0.187213
1971,0.190499
1962,0.193612
1953,0.196753
1944,0.199843
1935,0.202866
1926,0.206086
1917,0.209301
1908,0.212396
1899,0.216166
1890,0.219164
1881,0.221763
1872,0.224072
1863,0.226506
1854,0.228271
1845,0.229104
1836,0.22968
1827,0.229374
1818,0.22856
1809,0.227136
1800,0.225349
1791,0.222985
1782,0.220455
1773,0.217531
1764,0.214566
1755,0.211713
1746,0.208708
1737,0.205713
1728,0.202468
1719,0.199129
1710,0.195735
1701,0.192116
1692,0.188407
1683,0.184653
1674,0.180924
1665,0.177363
1656,0.173682
1647,0.170178
1638,0.166592
1629,0.163194
1620,0.160068
1611,0.156966
1602,0.154202
1593,0.151763
1584,0.149706
1575,0.147751
1566,0.146098
1557,0.144655
1548,0.143433
1539,0.142361
1530,0.141401
1521,0.14059
1512,0.139882
1503,0.139336
1494,0.138807
1485,0.138285
1476,0.137992
1467,0.137756
1458,0.137367
1449,0.137129
1440,0.136838
1431,0.136752
1422,0.136413
1413,0.136251
1404,0.136116
1395,0.136072
1386,0.135852
1377,0.1355609
1368,0.135338
1359,0.135179
1350,0.135105
1341,0.135011
1332,0.135055
1323,0.135122
1314,0.135329
1305,0.135659
1296,0.136029
1287,0.136549
1278,0.137269
1269,0.138118
1260,0.139115
1251,0.140342
1242,0.141713
1233,0.143238
1224,0.144962
1215,0.146991
1206,0.14919
1197,0.15156
1188,0.154335
1179,0.157193
1170,0.160078
1161,0.163068
1152,0.166206
1143,0.16976
1134,0.173986
1125,0.178761
1116,0.183863
1107,0.188757
1098,0.192809
1089,0.195603
1080,0.197483
1071,0.199135
1062,0.201442
1053,0.204456
1044,0.207809
1035,0.210439
1026,0.211667
1017,0.211239
1008,0.209614
999,0.207337
990,0.204267
981,0.200871
972,0.197887
963,0.195239
954,0.192509
945,0.189499
936,0.186058
927,0.182509
918,0.178767
909,0.175109
900,0.171874
891,0.165653
882,0.171876
873,0.16777
864,0.167511
855,0.165115
846,0.164388
837,0.164589
828,0.165292
819,0.166096
810,0.167977
801,0.169591
792,0.172048
783,0.173905
774,0.176759
765,0.180465
756,0.185467
747,0.189324
738,0.191099
729,0.191732
720,0.192672
711,0.194347
702,0.195292
693,0.194931
684,0.193379
675,0.191764
666,0.189967
657,0.188685
648,0.187665
639,0.186609
630,0.185506
621,0.184721
612,0.184726
603,0.185994
594,0.188293
585,0.189873
576,0.190758
567,0.194114
558,0.198257
549,0.198979
540,0.198077
531,0.201053
522,0.203974
513,0.204368
504,0.206711
495,0.211815
486,0.211222
477,0.210633
468,0.215166
459,0.213834
450,0.214136
441,0.21769
432,0.22005
423,0.224191
414,0.226012
405,0.230192
396,0.234794
387,0.238394
378,0.2446
369,0.251452
360,0.256961
351,0.267183
342,0.272352
333,0.283157
324,0.294016
315,0.310067
306,0.328793
297,0.350644
288,0.375
279,0.394962
270,0.403736
261,0.397191
252,0.381479
243,0.350863
234,0.322195
225,0.315263
216,0.417021
207,0.579528
200,0.561476

File: Dodecane_KIT_Vac_20.txt
Dodecane_KIT_Vac_20
Wavelength (nm),Abs
2655,0.0762397
2646,0.0797651
2637,0.0786982
2628,0.0781144
2619,0.0786763
2610,0.0774599
2601,0.0784189
2592,0.0797842
2583,0.0808662
2574,0.0807914
2565,0.0802724
2556,0.0799028
2547,0.0803213
2538,0.0804287
2529,0.0806848
2520,0.0807023
2511,0.0810119
2502,0.0817884
2493,0.0816947
2484,0.0822162
2475,0.0821056
2466,0.0825023
2457,0.082861
2448,0.0831718
2439,0.0835818
2430,0.0841332
2421,0.0843813
2412,0.084728
2403,0.0852947
2394,0.0859291
2385,0.0866375
2376,0.0871614
2367,0.0876983
2358,0.0887437
2349,0.0892427
2340,0.090088
2331,0.0907446
2322,0.0917547
2313,0.0926331
2304,0.0939902
2295,0.0946009
2286,0.0954108
2277,0.0965323
2268,0.0981383
2259,0.0997042
2250,0.100873
2241,0.102491
2232,0.104035
2223,0.105551
2214,0.10724
2205,0.109369
2196,0.111012
2187,0.112526
2178,0.114584
2169,0.116577
2160,0.1187
2151,0.120818
2142,0.123059
2133,0.125431
2124,0.127979
2115,0.130334
2106,0.13317
2097,0.135969
2088,0.13894
2079,0.142048
2070,0.145228
2061,0.148574
2052,0.152
2043,0.155428
2034,0.159057
2025,0.162423
2016,0.166125
2007,0.16944
1998,0.173184
1989,0.176537
1980,0.179735
1971,0.182953
1962,0.186074
1953,0.189068
1944,0.192145
1935,0.195222
1926,0.198501
1917,0.201712
1908,0.204556
1899,0.208423
1890,0.211369
1881,0.214063
1872,0.21661
1863,0.218804
1854,0.220581
1845,0.221541
1836,0.222287
1827,0.222137
1818,0.221428
1809,0.220328
1800,0.218578
1791,0.21656
1782,0.214315
1773,0.21164
1764,0.208981
1755,0.20621
1746,0.203363
1737,0.200566
1728,0.197477
1719,0.194428
1710,0.19112
1701,0.187606
1692,0.184022
1683,0.180394
1674,0.176786
1665,0.173368
1656,0.169784
1647,0.166256
1638,0.162787
1629,0.159457
1620,0.15636
1611,0.153214
1602,0.150439
1593,0.14801
1584,0.145824
1575,0.143934
1566,0.142252
1557,0.140732
1548,0.13951
1539,0.138355
1530,0.137397
1521,0.136636
1512,0.135861
1503,0.135304
1494,0.13475
1485,0.134229
1476,0.133913
1467,0.133595
1458,0.133258
1449,0.133
1440,0.132753
1431,0.132573
1422,0.132314
1413,0.132102
1404,0.131966
1395,0.13185
1386,0.131626
1377,0.131437
1368,0.131177
1359,0.130975
1350,0.130888
1341,0.130841
1332,0.13083
1323,0.130921
1314,0.131097
1305,0.131382
1296,0.131663
1287,0.132192
1278,0.132842
1269,0.133591
1260,0.134552
1251,0.135702
1242,0.136991
1233,0.138469
1224,0.140165
1215,0.142046
1206,0.144221
1197,0.146528
1188,0.149228
1179,0.152014
1170,0.154886
1161,0.157793
1152,0.160925
1143,0.164401
1134,0.168564
1125,0.173289
1116,0.178298
1107,0.183189
1098,0.187277
1089,0.190078
1080,0.191957
1071,0.193683
1062,0.19596
1053,0.198957
1044,0.202301
1035,0.205043
1026,0.206307
1017,0.206038
1008,0.204551
999,0.202433
990,0.199587
981,0.196362
972,0.193338
963,0.190692
954,0.188117
945,0.185072
936,0.181588
927,0.178235
918,0.174655
909,0.171076
900,0.167702
891,0.164739
882,0.167928
873,0.161131
864,0.161548
855,0.158285
846,0.15983
837,0.158717
828,0.159576
819,0.160629
810,0.16229
801,0.164059
792,0.16603
783,0.168089
774,0.170674
765,0.174687
756,0.179366
747,0.183502
738,0.185278
729,0.18615
720,0.187055
711,0.188631
702,0.189703
693,0.189219
684,0.187734
675,0.186175
666,0.184442
657,0.18317
648,0.182083
639,0.18091
630,0.179693
621,0.178916
612,0.179003
603,0.180162
594,0.18256
585,0.183841
576,0.184689
567,0.187766
558,0.191852
549,0.192656
540,0.19168
531,0.194616
522,0.197445
513,0.198197
504,0.200331
495,0.205213
486,0.205178
477,0.204342
468,0.208851
459,0.207712
450,0.207663
441,0.211629
432,0.213713
423,0.217651
414,0.219505
405,0.223271
396,0.22789
387,0.230854
378,0.237028
369,0.244256
360,0.249453
351,0.259382
342,0.265065
333,0.275328
324,0.286172
315,0.302063
306,0.321137
297,0.342761
288,0.366236
279,0.385884
270,0.395049
261,0.388391
252,0.372366
243,0.341795
234,0.31126
225,0.299671
216,0.396229
207,0.568956
200,0.546118

File: Dodecane_KIT_Vac_75.txt
Dodecane_KIT_Vac_75
Wavelength (nm),Abs
2655,0.0766625
2646,0.0787987
2637,0.0788275
2628,0.0774823
2619,0.0803562
2610,0.0787701
2601,0.0795576
2592,0.0808912
2583,0.081358
2574,0.0813316
2565,0.0800169
2556,0.0807293
2547,0.0810953
2538,0.0810996
2529,0.0815285
2520,0.0815462
2511,0.0820022
2502,0.0824616
2493,0.0824325
2484,0.0829412
2475,0.0829232
2466,0.0831088
2457,0.0834965
2448,0.0839578
2439,0.084416
2430,0.0846314
2421,0.0849915
2412,0.0853012
2403,0.0858407
2394,0.086587
2385,0.0871173
2376,0.0877071
2367,0.0883076
2358,0.0893824
2349,0.0897781
2340,0.0905638
2331,0.0913495
2322,0.0922809
2313,0.0933101
2304,0.0945791
2295,0.0955082
2286,0.09652
2277,0.0975609
2268,0.0994302
2259,0.100722
2250,0.101886
2241,0.103232
2232,0.104722
2223,0.106373
2214,0.108255
2205,0.110203
2196,0.111758
2187,0.1135
2178,0.115749
2169,0.117552
2160,0.119745
2151,0.121865
2142,0.124182
2133,0.126632
2124,0.129146
2115,0.131591
2106,0.134373
2097,0.137272
2088,0.14019
2079,0.143528
2070,0.146608
2061,0.150019
2052,0.153539
2043,0.156957
2034,0.160669
2025,0.164182
2016,0.167936
2007,0.171423
1998,0.17491
1989,0.178347
1980,0.181709
1971,0.18495
1962,0.188095
1953,0.191175
1944,0.194254
1935,0.197372
1926,0.200649
1917,0.20378
1908,0.206851
1899,0.210608
1890,0.213481
1881,0.216261
1872,0.218819
1863,0.221076
1854,0.222821
1845,0.223709
1836,0.224508
1827,0.224224
1818,0.223515
1809,0.222246
1800,0.220553
1791,0.218362
1782,0.215912
1773,0.213202
1764,0.210477
1755,0.207647
1746,0.204687
1737,0.201781
1728,0.198593
1719,0.195388
1710,0.192037
1701,0.188483
1692,0.184791
1683,0.18106
1674,0.177378
1665,0.17392
1656,0.17023
1647,0.166677
1638,0.163181
1629,0.15983
1620,0.156568
1611,0.153523
1602,0.150611
1593,0.148172
1584,0.146036
1575,0.144105
1566,0.142468
1557,0.140891
1548,0.139672
1539,0.138471
1530,0.137546
1521,0.136754
1512,0.136005
1503,0.135412
1494,0.134879
1485,0.134357
1476,0.134041
1467,0.133727
1458,0.133391
1449,0.133154
1440,0.132891
1431,0.132693
1422,0.132443
1413,0.132242
1404,0.132063
1395,0.131937
1386,0.131664
1377,0.131487
1368,0.131234
1359,0.131024
1350,0.130933
1341,0.130818
1332,0.130894
1323,0.130939
1314,0.131114
1305,0.131415
1296,0.131753
1287,0.132274
1278,0.132879
1269,0.133739
1260,0.134664
1251,0.135797
1242,0.137117
1233,0.13865
1224,0.140277
1215,0.142227
1206,0.144434
1197,0.14668
1188,0.149406
1179,0.152197
1170,0.155117
1161,0.158035
1152,0.161095
1143,0.1646
1134,0.168744
1125,0.173516
1116,0.178571
1107,0.183475
1098,0.187574
1089,0.190364
1080,0.192218
1071,0.193923
1062,0.19614
1053,0.199116
1044,0.202456
1035,0.205266
1026,0.20655
1017,0.206266
1008,0.204732
999,0.202627
990,0.19967
981,0.196399
972,0.193372
963,0.190753
954,0.18813
945,0.18517
936,0.181739
927,0.178283
918,0.174697
909,0.17126
900,0.167935
891,0.167885
882,0.167013
873,0.164088
864,0.160262
855,0.159272
846,0.159686
837,0.159301
828,0.159879
819,0.159983
810,0.162193
801,0.164061
792,0.166196
783,0.168187
774,0.170785
765,0.174695
756,0.179466
747,0.183334
738,0.185065
729,0.186084
720,0.186781
711,0.188787
702,0.189647
693,0.189128
684,0.187609
675,0.18611
666,0.18436
657,0.182992
648,0.181965
639,0.180822
630,0.179607
621,0.178841
612,0.178734
603,0.180063
594,0.182382
585,0.183796
576,0.184606
567,0.18785
558,0.191997
549,0.192786
540,0.191786
531,0.194565
522,0.197594
513,0.198105
504,0.200547
495,0.205346
486,0.205147
477,0.204272
468,0.208919
459,0.207656
450,0.207741
441,0.211708
432,0.213663
423,0.217537
414,0.219645
405,0.223567
396,0.228008
387,0.231554
378,0.237763
369,0.244776
360,0.249874
351,0.259597
342,0.265885
333,0.275773
324,0.285996
315,0.30226
306,0.320756
297,0.34242
288,0.366738
279,0.386602
270,0.394894
261,0.388367
252,0.372243
243,0.341436
234,0.31164
225,0.300242
216,0.396175
207,0.568538
200,0.54819

File: Dodecane_KIT_Vac_140.txt
Dodecane_KIT_Vac_140
Wavelength (nm),Abs
2655,0.0757061
2646,0.0803043
2637,0.0788972
2628,0.07768
2619,0.0794148
2610,0.0787016
2601,0.0798491
2592,0.0802443
2583,0.0812495
2574,0.0805809
2565,0.0803887
2556,0.0810266
2547,0.081051
2538,0.0809454
2529,0.0814418
2520,0.0817157
2511,0.0818278
2502,0.0822102
2493,0.0823917
2484,0.0830666
2475,0.0829045
2466,0.0832016
2457,0.0836361
2448,0.0839894
2439,0.0842975
2430,0.0846869
2421,0.0848854
2412,0.08533
2403,0.085941
2394,0.086595
2385,0.0871833
2376,0.0877493
2367,0.0883481
2358,0.0894386
2349,0.0898485
2340,0.090654
2331,0.0914767
2322,0.0923489
2313,0.0933438
2304,0.0947611
2295,0.0957804
2286,0.0963701
2277,0.0977336
2268,0.0993718
2259,0.100929
2250,0.10197
2241,0.103447
2232,0.10494
2223,0.106485
2214,0.108331
2205,0.110352
2196,0.112037
2187,0.113626
2178,0.115714
2169,0.117737
2160,0.120002
2151,0.122058
2142,0.124444
2133,0.126863
2124,0.129243
2115,0.131845
2106,0.134628
2097,0.137557
2088,0.140492
2079,0.143758
2070,0.146952
2061,0.150471
2052,0.154053
2043,0.157417
2034,0.161092
2025,0.164642
2016,0.168467
2007,0.171881
1998,0.175475
1989,0.17896
1980,0.182181
1971,0.18555
1962,0.188639
1953,0.191792
1944,0.194874
1935,0.197991
1926,0.201315
1917,0.204437
1908,0.207607
1899,0.211328
1890,0.214403
1881,0.217068
1872,0.219713
1863,0.221722
1854,0.223597
1845,0.224482
1836,0.22517
1827,0.22484
1818,0.22417
1809,0.222957
1800,0.221107
1791,0.218894
1782,0.216504
1773,0.213783
1764,0.210919
1755,0.208037
1746,0.205088
1737,0.202104
1728,0.198878
1719,0.195689
1710,0.192259
1701,0.188691
1692,0.185008
1683,0.181254
1674,0.177483
1665,0.173997
1656,0.170268
1647,0.166723
1638,0.163226
1629,0.159764
1620,0.156532
1611,0.153411
1602,0.1506
1593,0.148112
1584,0.145932
1575,0.144027
1566,0.142323
1557,0.140843
1548,0.139573
1539,0.138453
1530,0.137512
1521,0.136644
1512,0.135895
1503,0.135366
1494,0.134832
1485,0.134294
1476,0.134002
1467,0.13363
1458,0.133303
1449,0.133083
1440,0.132848
1431,0.132624
1422,0.132361
1413,0.132188
1404,0.131991
1395,0.131848
1386,0.131572
1377,0.131452
1368,0.131138
1359,0.130959
1350,0.130888
1341,0.13081
1332,0.13081
1323,0.130894
1314,0.13108
1305,0.131308
1296,0.131659
1287,0.132182
1278,0.132819
1269,0.133666
1260,0.134607
1251,0.13577
1242,0.137075
1233,0.138614
1224,0.140293
1215,0.142203
1206,0.144424
1197,0.146723
1188,0.149413
1179,0.152247
1170,0.155131
1161,0.158035
1152,0.161111
1143,0.164665
1134,0.168784
1125,0.173525
1116,0.178626
1107,0.183533
1098,0.187655
1089,0.190475
1080,0.192293
1071,0.193913
1062,0.196117
1053,0.199111
1044,0.202512
1035,0.205274
1026,0.206603
1017,0.206285
1008,0.204742
999,0.202536
990,0.199681
981,0.196387
972,0.193346
963,0.19061
954,0.188069
945,0.185056
936,0.181634
927,0.178119
918,0.174725
909,0.171015
900,0.168001
891,0.162127
882,0.165282
873,0.160589
864,0.161285
855,0.158903
846,0.158912
837,0.158636
828,0.159438
819,0.159661
810,0.16217
801,0.164027
792,0.166032
783,0.168038
774,0.171056
765,0.174445
756,0.179393
747,0.183281
738,0.185437
729,0.186066
720,0.187094
711,0.188628
702,0.189784
693,0.18921
684,0.187562
675,0.186122
666,0.184448
657,0.183035
648,0.181998
639,0.180845
630,0.179557
621,0.178942
612,0.178872
603,0.180113
594,0.182454
585,0.18383
576,0.184598
567,0.187785
558,0.192011
549,0.192612
540,0.191735
531,0.194525
522,0.197586
513,0.198159
504,0.200384
495,0.205448
486,0.205291
477,0.204206
468,0.208859
459,0.207658
450,0.207952
441,0.211562
432,0.213796
423,0.21792
414,0.219486
405,0.223661
396,0.228385
387,0.231433
378,0.237916
369,0.244937
360,0.249925
351,0.260087
342,0.265607
333,0.275481
324,0.286258
315,0.302177
306,0.321385
297,0.341931
288,0.366479
279,0.386597
270,0.395418
261,0.389037
252,0.372792
243,0.342216
234,0.31166
225,0.300582
216,0.395902
207,0.569072
200,0.548309

File: Dodecane_KIT_Vac_1175.txt
Dodecane_KIT_Vac_1175
Wavelength (nm),Abs
2655,0.0745261
2646,0.0782558
2637,0.0782187
2628,0.076711
2619,0.0781223
2610,0.0772951
2601,0.0781798
2592,0.0787534
2583,0.0800653
2574,0.0797793
2565,0.0789211
2556,0.0795597
2547,0.080175
2538,0.0798876
2529,0.0803212
2520,0.0806821
2511,0.0809281
2502,0.0812978
2493,0.0816124
2484,0.0823622
2475,0.0820225
2466,0.0825465
2457,0.0827837
2448,0.0832951
2439,0.0837161
2430,0.0840527
2421,0.0841937
2412,0.0846368
2403,0.0853004
2394,0.0859871
2385,0.0866603
2376,0.0871311
2367,0.0877816
2358,0.0887363
2349,0.0893774
2340,0.0900726
2331,0.0909271
2322,0.0917759
2313,0.0927181
2304,0.094024
2295,0.0949319
2286,0.0957916
2277,0.0968209
2268,0.0987395
2259,0.10012
2250,0.101299
2241,0.102605
2232,0.104291
2223,0.105923
2214,0.107748
2205,0.109881
2196,0.111479
2187,0.113252
2178,0.115085
2169,0.117199
2160,0.119366
2151,0.121639
2142,0.123855
2133,0.126236
2124,0.128708
2115,0.131275
2106,0.134006
2097,0.136984
2088,0.140085
2079,0.143222
2070,0.14652
2061,0.149833
2052,0.15353
2043,0.157031
2034,0.160645
2025,0.164227
2016,0.167935
2007,0.171382
1998,0.17504
1989,0.178578
1980,0.181844
1971,0.185141
1962,0.188287
1953,0.191283
1944,0.194474
1935,0.197722
1926,0.200944
1917,0.204186
1908,0.207231
1899,0.211038
1890,0.214076
1881,0.216883
1872,0.219464
1863,0.221779
1854,0.223543
1845,0.224399
1836,0.225077
1827,0.224769
1818,0.223995
1809,0.22281
1800,0.221023
1791,0.218718
1782,0.216208
1773,0.213433
1764,0.210497
1755,0.207645
1746,0.204665
1737,0.201673
1728,0.198456
1719,0.195068
1710,0.191736
1701,0.188065
1692,0.18431
1683,0.180605
1674,0.176851
1665,0.173268
1656,0.169606
1647,0.166046
1638,0.162528
1629,0.159105
1620,0.155839
1611,0.152678
1602,0.149815
1593,0.14737
1584,0.145234
1575,0.143266
1566,0.141619
1557,0.140141
1548,0.138871
1539,0.13779
1530,0.13682
1521,0.135982
1512,0.135283
1503,0.134735
1494,0.134215
1485,0.133672
1476,0.13329
1467,0.133081
1458,0.132753
1449,0.132489
1440,0.132261
1431,0.132066
1422,0.13179
1413,0.131606
1404,0.131406
1395,0.131303
1386,0.130937
1377,0.130934
1368,0.130604
1359,0.130409
1350,0.130311
1341,0.130251
1332,0.130282
1323,0.13038
1314,0.130556
1305,0.130865
1296,0.131198
1287,0.131686
1278,0.132359
1269,0.133204
1260,0.134133
1251,0.13535
1242,0.136677
1233,0.138203
1224,0.139852
1215,0.141792
1206,0.144035
1197,0.14632
1188,0.149152
1179,0.151909
1170,0.154778
1161,0.157685
1152,0.160764
1143,0.1643
1134,0.168429
1125,0.173207
1116,0.178351
1107,0.183274
1098,0.187416
1089,0.190192
1080,0.191979
1071,0.193581
1062,0.195741
1053,0.198725
1044,0.20219
1035,0.204957
1026,0.206287
1017,0.205915
1008,0.204371
999,0.202166
990,0.199254
981,0.195881
972,0.192853
963,0.190169
954,0.18759
945,0.18464
936,0.181188
927,0.177636
918,0.174018
909,0.170545
900,0.167265
891,0.157672
882,0.167454
873,0.163277
864,0.160252
855,0.157234
846,0.158169
837,0.158005
828,0.158521
819,0.15951
810,0.161795
801,0.163882
792,0.165248
783,0.167426
774,0.170267
765,0.17407
756,0.178929
747,0.182883
738,0.184638
729,0.185725
720,0.186449
711,0.188132
702,0.189321
693,0.188602
684,0.187015
675,0.185484
666,0.183793
657,0.182499
648,0.181341
639,0.180217
630,0.179026
621,0.178429
612,0.178239
603,0.179572
594,0.181934
585,0.183234
576,0.184228
567,0.187394
558,0.191577
549,0.192405
540,0.19132
531,0.194254
522,0.197079
513,0.197572
504,0.199847
495,0.204966
486,0.204861
477,0.20404
468,0.208685
459,0.207341
450,0.207447
441,0.211236
432,0.213474
423,0.217444
414,0.219765
405,0.223502
396,0.228562
387,0.231513
378,0.237899
369,0.245298
360,0.25012
351,0.260222
342,0.265926
333,0.275678
324,0.286538
315,0.302423
306,0.320651
297,0.342238
288,0.366721
279,0.386685
270,0.395486
261,0.389724
252,0.373563
243,0.343339
234,0.313558
225,0.30182
216,0.396747
207,0.571281
200,0.55061