Folder: SWCNTs/Absorption_Analysis/TGA (part 2)

File: temp_2.txt
         Index            Ts             t            HF        Weight            Tr
           [#]          [°C]           [s]       [Wg^-1]           [%]          [°C]
             0   2.67837e+01   0.00000e+00  -2.91771e+00   9.99198e+01   3.00000e+01
            40   3.27826e+01   4.00000e+01  -1.98865e+00   9.77222e+01   3.66667e+01
            80   3.95585e+01   8.00000e+01  -1.50394e+00   9.64958e+01   4.33333e+01
           120   4.65086e+01   1.20000e+02  -1.22338e+00   9.58589e+01   5.00000e+01
           160   5.34640e+01   1.60000e+02  -1.01808e+00   9.53647e+01   5.66667e+01
           200   6.03671e+01   2.00000e+02  -8.61191e-01   9.50148e+01   6.33333e+01
           240   6.71997e+01   2.40000e+02  -7.46449e-01   9.46908e+01   7.00000e+01
           280   7.39752e+01   2.80000e+02  -6.67936e-01   9.44180e+01   7.66667e+01
           320   8.07645e+01   3.20000e+02  -6.10841e-01   9.42225e+01   8.33333e+01
           360   8.74939e+01   3.60000e+02  -5.70292e-01   9.40228e+01   9.00000e+01
           400   9.42112e+01   4.00000e+02  -5.41354e-01   9.38600e+01   9.66667e+01
           440   1.00919e+02   4.40000e+02  -5.21295e-01   9.37232e+01   1.03333e+02
           480   1.07631e+02   4.80000e+02  -5.09308e-01   9.36217e+01   1.10000e+02
           520   1.14357e+02   5.20000e+02  -4.39465e-01   9.34510e+01   1.16667e+02
           560   1.21089e+02   5.60000e+02  -4.07393e-01   9.32660e+01   1.23333e+02
           600   1.27807e+02   6.00000e+02  -4.79314e-01   9.31987e+01   1.30000e+02
           640   1.34556e+02   6.40000e+02  -5.64546e-01   9.31455e+01   1.36667e+02
           680   1.41303e+02   6.80000e+02  -6.51476e-01   9.31086e+01   1.43333e+02
           720   1.48030e+02   7.20000e+02  -7.29297e-01   9.30530e+01   1.50000e+02
           760   1.54776e+02   7.60000e+02  -7.75210e-01   9.29640e+01   1.56667e+02
           800   1.61550e+02   8.00000e+02  -8.36585e-01   9.29066e+01   1.63333e+02
           840   1.68308e+02   8.40000e+02  -8.94167e-01   9.28443e+01   1.70000e+02
           880   1.75065e+02   8.80000e+02  -9.51596e-01   9.27266e+01   1.76667e+02
           920   1.81839e+02   9.20000e+02  -1.00741e+00   9.26176e+01   1.83333e+02
           960   1.88610e+02   9.60000e+02  -1.07272e+00   9.24706e+01   1.90000e+02
          1000   1.95365e+02   1.00000e+03  -1.12746e+00   9.22941e+01   1.96667e+02
          1040   2.02154e+02   1.04000e+03  -1.19555e+00   9.20981e+01   2.03333e+02
          1080   2.08933e+02   1.08000e+03  -1.24985e+00   9.18601e+01   2.10000e+02
          1120   2.15704e+02   1.12000e+03  -1.31327e+00   9.15917e+01   2.16667e+02
          1160   2.22466e+02   1.16000e+03  -1.34940e+00   9.12246e+01   2.23333e+02
          1200   2.29251e+02   1.20000e+03  -1.40245e+00   9.08379e+01   2.30000e+02
          1240   2.36019e+02   1.24000e+03  -1.43029e+00   9.03825e+01   2.36667e+02
          1280   2.42797e+02   1.28000e+03  -1.41996e+00   8.99346e+01   2.43333e+02
          1320   2.49574e+02   1.32000e+03  -1.40944e+00   8.94702e+01   2.50000e+02
          1360   2.56339e+02   1.36000e+03  -1.41731e+00   8.90055e+01   2.56667e+02
          1400   2.63117e+02   1.40000e+03  -1.45441e+00   8.84980e+01   2.63333e+02
          1440   2.69889e+02   1.44000e+03  -1.52965e+00   8.80143e+01   2.70000e+02
          1480   2.76657e+02   1.48000e+03  -1.57061e+00   8.75148e+01   2.76667e+02
          1520   2.83415e+02   1.52000e+03  -1.57706e+00   8.70236e+01   2.83333e+02
          1560   2.90178e+02   1.56000e+03  -1.54821e+00   8.65672e+01   2.90000e+02
          1600   2.96943e+02   1.60000e+03  -1.51946e+00   8.61133e+01   2.96667e+02
          1640   3.03698e+02   1.64000e+03  -1.48808e+00   8.57025e+01   3.03333e+02
          1680   3.10459e+02   1.68000e+03  -1.45034e+00   8.53015e+01   3.10000e+02
          1720   3.17216e+02   1.72000e+03  -1.41244e+00   8.49448e+01   3.16667e+02
          1760   3.23962e+02   1.76000e+03  -1.34197e+00   8.45352e+01   3.23333e+02
          1800   3.30727e+02   1.80000e+03  -1.28569e+00   8.41906e+01   3.30000e+02
          1840   3.37485e+02   1.84000e+03  -1.22309e+00   8.38317e+01   3.36667e+02
          1880   3.44253e+02   1.88000e+03  -1.15070e+00   8.34888e+01   3.43333e+02
          1920   3.50989e+02   1.92000e+03  -1.08632e+00   8.31166e+01   3.50000e+02
          1960   3.57734e+02   1.96000e+03  -1.03224e+00   8.27248e+01   3.56667e+02
          2000   3.64469e+02   2.00000e+03  -9.25535e-01   8.23257e+01   3.63333e+02
          2040   3.71226e+02   2.04000e+03  -8.70866e-01   8.19233e+01   3.70000e+02
          2080   3.77975e+02   2.08000e+03  -8.02344e-01   8.15170e+01   3.76667e+02
          2120   3.84713e+02   2.12000e+03  -7.07626e-01   8.10542e+01   3.83333e+02
          2160   3.91449e+02   2.16000e+03  -6.19933e-01   8.05736e+01   3.90000e+02
          2200   3.98177e+02   2.20000e+03  -5.13969e-01   8.00600e+01   3.96667e+02
          2240   4.04908e+02   2.24000e+03  -4.05440e-01   7.95586e+01   4.03333e+02
          2280   4.11651e+02   2.28000e+03  -2.57099e-01   7.89744e+01   4.10000e+02
          2320   4.18383e+02   2.32000e+03  -1.43039e-01   7.84397e+01   4.16667e+02
          2360   4.25104e+02   2.36000e+03   3.89179e-02   7.78625e+01   4.23333e+02
          2400   4.31838e+02   2.40000e+03   2.13660e-01   7.72511e+01   4.30000e+02
          2440   4.38549e+02   2.44000e+03   3.96510e-01   7.66762e+01   4.36667e+02
          2480   4.45276e+02   2.48000e+03   6.10632e-01   7.60746e+01   4.43333e+02
          2520   4.52003e+02   2.52000e+03   8.52929e-01   7.54859e+01   4.50000e+02
          2560   4.58699e+02   2.56000e+03   1.06595e+00   7.49034e+01   4.56667e+02
          2600   4.65411e+02   2.60000e+03   1.31187e+00   7.43262e+01   4.63333e+02
          2640   4.72119e+02   2.64000e+03   1.56339e+00   7.37516e+01   4.70000e+02
          2680   4.78835e+02   2.68000e+03   1.81260e+00   7.31944e+01   4.76667e+02
          2720   4.85541e+02   2.72000e+03   2.07321e+00   7.26698e+01   4.83333e+02
          2760   4.92254e+02   2.76000e+03   2.31584e+00   7.21193e+01   4.90000e+02
          2800   4.98965e+02   2.80000e+03   2.57903e+00   7.16022e+01   4.96667e+02
          2840   5.05680e+02   2.84000e+03   2.81777e+00   7.10310e+01   5.03333e+02
          2880   5.12410e+02   2.88000e+03   3.03321e+00   7.05069e+01   5.10000e+02
          2920   5.19133e+02   2.92000e+03   3.27127e+00   6.99530e+01   5.16667e+02
          2960   5.25860e+02   2.96000e+03   3.47996e+00   6.93494e+01   5.23333e+02
          3000   5.32595e+02   3.00000e+03   3.66754e+00   6.87450e+01   5.30000e+02
          3040   5.39316e+02   3.04000e+03   3.82224e+00   6.80610e+01   5.36667e+02
          3080   5.46044e+02   3.08000e+03   3.95465e+00   6.73208e+01   5.43333e+02
          3120   5.52784e+02   3.12000e+03   4.09670e+00   6.65110e+01   5.50000e+02
          3160   5.59519e+02   3.16000e+03   4.20859e+00   6.56420e+01   5.56667e+02
          3200   5.66247e+02   3.20000e+03   4.31299e+00   6.46951e+01   5.63333e+02
          3240   5.72974e+02   3.24000e+03   4.34722e+00   6.36851e+01   5.70000e+02
          3280   5.79713e+02   3.28000e+03   4.40991e+00   6.25553e+01   5.76667e+02
          3320   5.86437e+02   3.32000e+03   4.41069e+00   6.12929e+01   5.83333e+02
          3360   5.93164e+02   3.36000e+03   4.32729e+00   5.99063e+01   5.90000e+02
          3400   5.99887e+02   3.40000e+03   4.27203e+00   5.84025e+01   5.96667e+02
          3440   6.06630e+02   3.44000e+03   4.24363e+00   5.67545e+01   6.03333e+02
          3480   6.13358e+02   3.48000e+03   4.30939e+00   5.50282e+01   6.10000e+02
          3520   6.20102e+02   3.52000e+03   4.52349e+00   5.32361e+01   6.16667e+02
          3560   6.26831e+02   3.56000e+03   4.93269e+00   5.14221e+01   6.23333e+02
          3600   6.33575e+02   3.60000e+03   5.40294e+00   4.97141e+01   6.30000e+02
          3640   6.40321e+02   3.64000e+03   5.96249e+00   4.81520e+01   6.36667e+02
          3680   6.47048e+02   3.68000e+03   6.48775e+00   4.66338e+01   6.43333e+02
          3720   6.53770e+02   3.72000e+03   6.91972e+00   4.52084e+01   6.50000e+02
          3760   6.60508e+02   3.76000e+03   7.20354e+00   4.38787e+01   6.56667e+02
          3800   6.67243e+02   3.80000e+03   7.42794e+00   4.25662e+01   6.63333e+02
          3840   6.73981e+02   3.84000e+03   7.52801e+00   4.12153e+01   6.70000e+02
          3880   6.80707e+02   3.88000e+03   7.53652e+00   3.98212e+01   6.76667e+02
          3920   6.87447e+02   3.92000e+03   7.50339e+00   3.83163e+01   6.83333e+02
          3960   6.94173e+02   3.96000e+03   7.44720e+00   3.67857e+01   6.90000e+02
          4000   7.00886e+02   4.00000e+03   7.35805e+00   3.51523e+01   6.96667e+02
          4040   7.07629e+02   4.04000e+03   7.21836e+00   3.34611e+01   7.03333e+02
          4080   7.14356e+02   4.08000e+03   7.09993e+00   3.17420e+01   7.10000e+02
          4120   7.21090e+02   4.12000e+03   6.97718e+00   2.99948e+01   7.16667e+02
          4160   7.27811e+02   4.16000e+03   6.90573e+00   2.82350e+01   7.23333e+02
          4200   7.34548e+02   4.20000e+03   6.81539e+00   2.65301e+01   7.30000e+02
          4240   7.41285e+02   4.24000e+03   6.74315e+00   2.48713e+01   7.36667e+02
          4280   7.48017e+02   4.28000e+03   6.62648e+00   2.33165e+01   7.43333e+02
          4320   7.54757e+02   4.32000e+03   6.54518e+00   2.18367e+01   7.50000e+02
          4360   7.61480e+02   4.36000e+03   6.43678e+00   2.04221e+01   7.56667e+02
          4400   7.68213e+02   4.40000e+03   6.27048e+00   1.91731e+01   7.63333e+02
          4440   7.74939e+02   4.44000e+03   6.03333e+00   1.80201e+01   7.70000e+02
          4480   7.81680e+02   4.48000e+03   5.80710e+00   1.69776e+01   7.76667e+02
          4520   7.88421e+02   4.52000e+03   5.56899e+00   1.61036e+01   7.83333e+02
          4560   7.95146e+02   4.56000e+03   5.33515e+00   1.53514e+01   7.90000e+02
          4600   8.01899e+02   4.60000e+03   5.12112e+00   1.47474e+01   7.96667e+02
          4620   8.05272e+02   4.62000e+03   5.04180e+00   1.45044e+01   8.00000e+02
!&20250826-02 TTF filled