Folder: SWCNTs/Absorption_Analysis/TGA

File: 20250825-01 TCNQ filled.txt
         Index            Ts             t            HF        Weight            Tr
           [#]          [°C]           [s]       [Wg^-1]           [%]          [°C]
             0   2,86139e+01   0,00000e+00  -2,27112e+00   9,99403e+01   3,00000e+01
            40   3,41735e+01   4,00000e+01  -1,49257e+00   9,83328e+01   3,66667e+01
            80   4,05958e+01   8,00000e+01  -1,10729e+00   9,73377e+01   4,33333e+01
           120   4,72655e+01   1,20000e+02  -9,05131e-01   9,68540e+01   5,00000e+01
           160   5,40225e+01   1,60000e+02  -7,47578e-01   9,64388e+01   5,66667e+01
           200   6,07883e+01   2,00000e+02  -6,28856e-01   9,61550e+01   6,33333e+01
           240   6,74900e+01   2,40000e+02  -5,35039e-01   9,58695e+01   7,00000e+01
           280   7,42006e+01   2,80000e+02  -4,74981e-01   9,56428e+01   7,66667e+01
           320   8,08993e+01   3,20000e+02  -4,33870e-01   9,54839e+01   8,33333e+01
           360   8,76078e+01   3,60000e+02  -4,03889e-01   9,53278e+01   9,00000e+01
           400   9,42868e+01   4,00000e+02  -3,78499e-01   9,51944e+01   9,66667e+01
           440   1,00957e+02   4,40000e+02  -3,69789e-01   9,50858e+01   1,03333e+02
           480   1,07660e+02   4,80000e+02  -3,67970e-01   9,50022e+01   1,10000e+02
           520   1,14356e+02   5,20000e+02  -2,96276e-01   9,48584e+01   1,16667e+02
           560   1,21061e+02   5,60000e+02  -2,60588e-01   9,47201e+01   1,23333e+02
           600   1,27795e+02   6,00000e+02  -3,17115e-01   9,46655e+01   1,30000e+02
           640   1,34512e+02   6,40000e+02  -3,84690e-01   9,46429e+01   1,36667e+02
           680   1,41233e+02   6,80000e+02  -4,60217e-01   9,46376e+01   1,43333e+02
           720   1,47976e+02   7,20000e+02  -5,10086e-01   9,46058e+01   1,50000e+02
           760   1,54732e+02   7,60000e+02  -5,56483e-01   9,45656e+01   1,56667e+02
           800   1,61480e+02   8,00000e+02  -6,00847e-01   9,45413e+01   1,63333e+02
           840   1,68230e+02   8,40000e+02  -6,37045e-01   9,45255e+01   1,70000e+02
           880   1,74993e+02   8,80000e+02  -6,64706e-01   9,44930e+01   1,76667e+02
           920   1,81748e+02   9,20000e+02  -6,99514e-01   9,44627e+01   1,83333e+02
           960   1,88521e+02   9,60000e+02  -7,43927e-01   9,44454e+01   1,90000e+02
          1000   1,95296e+02   1,00000e+03  -7,56062e-01   9,44073e+01   1,96667e+02
          1040   2,02079e+02   1,04000e+03  -7,91140e-01   9,43450e+01   2,03333e+02
          1080   2,08837e+02   1,08000e+03  -8,20616e-01   9,42784e+01   2,10000e+02
          1120   2,15625e+02   1,12000e+03  -8,33548e-01   9,41457e+01   2,16667e+02
          1160   2,22389e+02   1,16000e+03  -8,43166e-01   9,39314e+01   2,23333e+02
          1200   2,29165e+02   1,20000e+03  -8,38162e-01   9,34785e+01   2,30000e+02
          1240   2,35938e+02   1,24000e+03  -8,06303e-01   9,26607e+01   2,36667e+02
          1280   2,42719e+02   1,28000e+03  -7,52958e-01   9,13431e+01   2,43333e+02
          1320   2,49493e+02   1,32000e+03  -6,56500e-01   8,90788e+01   2,50000e+02
          1360   2,56271e+02   1,36000e+03  -5,27074e-01   8,54201e+01   2,56667e+02
          1400   2,63037e+02   1,40000e+03  -4,72947e-01   8,06160e+01   2,63333e+02
          1440   2,69788e+02   1,44000e+03  -6,72123e-01   7,70732e+01   2,70000e+02
          1480   2,76557e+02   1,48000e+03  -8,21463e-01   7,61401e+01   2,76667e+02
          1520   2,83320e+02   1,52000e+03  -8,61459e-01   7,56947e+01   2,83333e+02
          1560   2,90085e+02   1,56000e+03  -8,53972e-01   7,53650e+01   2,90000e+02
          1600   2,96860e+02   1,60000e+03  -8,67555e-01   7,50540e+01   2,96667e+02
          1640   3,03621e+02   1,64000e+03  -8,64395e-01   7,47743e+01   3,03333e+02
          1680   3,10375e+02   1,68000e+03  -8,72331e-01   7,44831e+01   3,10000e+02
          1720   3,17145e+02   1,72000e+03  -8,86008e-01   7,42307e+01   3,16667e+02
          1760   3,23906e+02   1,76000e+03  -8,44953e-01   7,39472e+01   3,23333e+02
          1800   3,30661e+02   1,80000e+03  -8,15326e-01   7,36816e+01   3,30000e+02
          1840   3,37417e+02   1,84000e+03  -7,98625e-01   7,34051e+01   3,36667e+02
          1880   3,44175e+02   1,88000e+03  -7,71488e-01   7,31438e+01   3,43333e+02
          1920   3,50916e+02   1,92000e+03  -7,38056e-01   7,28572e+01   3,50000e+02
          1960   3,57659e+02   1,96000e+03  -7,03942e-01   7,25585e+01   3,56667e+02
          2000   3,64404e+02   2,00000e+03  -6,53673e-01   7,22550e+01   3,63333e+02
          2040   3,71153e+02   2,04000e+03  -6,33688e-01   7,19566e+01   3,70000e+02
          2080   3,77913e+02   2,08000e+03  -5,88256e-01   7,16750e+01   3,76667e+02
          2120   3,84648e+02   2,12000e+03  -5,27906e-01   7,13623e+01   3,83333e+02
          2160   3,91388e+02   2,16000e+03  -4,81537e-01   7,10621e+01   3,90000e+02
          2200   3,98121e+02   2,20000e+03  -4,07687e-01   7,07372e+01   3,96667e+02
          2240   4,04860e+02   2,24000e+03  -3,53670e-01   7,04442e+01   4,03333e+02
          2280   4,11592e+02   2,28000e+03  -2,89532e-01   7,01089e+01   4,10000e+02
          2320   4,18316e+02   2,32000e+03  -2,53566e-01   6,97683e+01   4,16667e+02
          2360   4,25035e+02   2,36000e+03  -1,90126e-01   6,94055e+01   4,23333e+02
          2400   4,31772e+02   2,40000e+03  -1,54281e-01   6,90034e+01   4,30000e+02
          2440   4,38476e+02   2,44000e+03  -1,12177e-01   6,86038e+01   4,36667e+02
          2480   4,45174e+02   2,48000e+03  -9,23037e-02   6,81397e+01   4,43333e+02
          2520   4,51883e+02   2,52000e+03  -7,30827e-02   6,76516e+01   4,50000e+02
          2560   4,58600e+02   2,56000e+03  -1,05510e-01   6,70972e+01   4,56667e+02
          2600   4,65308e+02   2,60000e+03  -1,36508e-01   6,64989e+01   4,63333e+02
          2640   4,72020e+02   2,64000e+03  -1,79119e-01   6,58065e+01   4,70000e+02
          2680   4,78720e+02   2,68000e+03  -2,45211e-01   6,50101e+01   4,76667e+02
          2720   4,85427e+02   2,72000e+03  -3,51786e-01   6,41424e+01   4,83333e+02
          2760   4,92138e+02   2,76000e+03  -5,21440e-01   6,31307e+01   4,90000e+02
          2800   4,98852e+02   2,80000e+03  -7,44186e-01   6,19743e+01   4,96667e+02
          2840   5,05560e+02   2,84000e+03  -1,01065e+00   6,06288e+01   5,03333e+02
          2880   5,12277e+02   2,88000e+03  -1,26842e+00   5,91228e+01   5,10000e+02
          2920   5,19004e+02   2,92000e+03  -1,42194e+00   5,74674e+01   5,16667e+02
          2960   5,25731e+02   2,96000e+03  -1,45026e+00   5,56884e+01   5,23333e+02
          3000   5,32458e+02   3,00000e+03  -1,38458e+00   5,38538e+01   5,30000e+02
          3040   5,39189e+02   3,04000e+03  -1,32460e+00   5,19563e+01   5,36667e+02
          3080   5,45931e+02   3,08000e+03  -1,30174e+00   5,00090e+01   5,43333e+02
          3120   5,52662e+02   3,12000e+03  -1,16976e+00   4,80366e+01   5,50000e+02
          3160   5,59393e+02   3,16000e+03  -8,96924e-01   4,60689e+01   5,56667e+02
          3200   5,66135e+02   3,20000e+03  -4,39959e-01   4,42000e+01   5,63333e+02
          3240   5,72868e+02   3,24000e+03   1,46754e-01   4,24936e+01   5,70000e+02
          3280   5,79620e+02   3,28000e+03   9,11063e-01   4,09785e+01   5,76667e+02
          3320   5,86349e+02   3,32000e+03   1,66871e+00   3,96860e+01   5,83333e+02
          3360   5,93077e+02   3,36000e+03   2,26567e+00   3,85550e+01   5,90000e+02
          3400   5,99815e+02   3,40000e+03   2,72274e+00   3,75282e+01   5,96667e+02
          3440   6,06540e+02   3,44000e+03   3,05224e+00   3,65348e+01   6,03333e+02
          3480   6,13251e+02   3,48000e+03   3,32834e+00   3,55697e+01   6,10000e+02
          3520   6,19997e+02   3,52000e+03   3,58551e+00   3,46010e+01   6,16667e+02
          3560   6,26741e+02   3,56000e+03   3,82508e+00   3,36079e+01   6,23333e+02
          3600   6,33460e+02   3,60000e+03   4,03866e+00   3,26117e+01   6,30000e+02
          3640   6,40191e+02   3,64000e+03   4,17751e+00   3,16124e+01   6,36667e+02
          3680   6,46911e+02   3,68000e+03   4,22756e+00   3,05628e+01   6,43333e+02
          3720   6,53653e+02   3,72000e+03   4,16786e+00   2,94266e+01   6,50000e+02
          3760   6,60366e+02   3,76000e+03   4,01570e+00   2,81802e+01   6,56667e+02
          3800   6,67113e+02   3,80000e+03   3,78523e+00   2,68181e+01   6,63333e+02
          3840   6,73836e+02   3,84000e+03   3,46294e+00   2,53256e+01   6,70000e+02
          3880   6,80551e+02   3,88000e+03   3,06118e+00   2,36652e+01   6,76667e+02
          3920   6,87263e+02   3,92000e+03   2,72370e+00   2,18966e+01   6,83333e+02
          3960   6,94009e+02   3,96000e+03   2,52902e+00   2,01152e+01   6,90000e+02
          4000   7,00741e+02   4,00000e+03   2,55811e+00   1,84177e+01   6,96667e+02
          4040   7,07466e+02   4,04000e+03   2,71844e+00   1,68892e+01   7,03333e+02
          4080   7,14192e+02   4,08000e+03   2,95091e+00   1,55982e+01   7,10000e+02
          4120   7,20928e+02   4,12000e+03   3,14914e+00   1,45339e+01   7,16667e+02
          4160   7,27659e+02   4,16000e+03   3,31029e+00   1,36544e+01   7,23333e+02
          4200   7,34394e+02   4,20000e+03   3,39753e+00   1,29429e+01   7,30000e+02
          4240   7,41119e+02   4,24000e+03   3,39202e+00   1,23380e+01   7,36667e+02
          4280   7,47863e+02   4,28000e+03   3,38539e+00   1,18561e+01   7,43333e+02
          4320   7,54594e+02   4,32000e+03   3,35900e+00   1,14538e+01   7,50000e+02
          4360   7,61338e+02   4,36000e+03   3,31014e+00   1,11329e+01   7,56667e+02
          4400   7,68078e+02   4,40000e+03   3,26495e+00   1,08775e+01   7,63333e+02
          4440   7,74807e+02   4,44000e+03   3,18949e+00   1,06822e+01   7,70000e+02
          4480   7,81562e+02   4,48000e+03   3,10991e+00   1,05030e+01   7,76667e+02
          4520   7,88296e+02   4,52000e+03   3,00384e+00   1,03750e+01   7,83333e+02
          4560   7,95056e+02   4,56000e+03   2,96310e+00   1,02665e+01   7,90000e+02
          4600   8,01791e+02   4,60000e+03   2,93436e+00   1,02045e+01   7,96667e+02
          4620   8,05174e+02   4,62000e+03   2,93492e+00   1,01282e+01   8,00000e+02
!&20250825-01 TCNQ filled

File: 20250826-01 P2 unfilled.txt
         Index            Ts             t            HF        Weight            Tr
           [#]          [°C]           [s]       [Wg^-1]           [%]          [°C]
             0   2,77714e+01   0,00000e+00  -2,11116e+00   9,99589e+01   3,00000e+01
            40   3,35190e+01   4,00000e+01  -1,56316e+00   9,87625e+01   3,66667e+01
            80   4,01247e+01   8,00000e+01  -1,14644e+00   9,78217e+01   4,33333e+01
           120   4,69115e+01   1,20000e+02  -9,08423e-01   9,71831e+01   5,00000e+01
           160   5,37447e+01   1,60000e+02  -7,38660e-01   9,65553e+01   5,66667e+01
           200   6,05558e+01   2,00000e+02  -6,08089e-01   9,59854e+01   6,33333e+01
           240   6,73276e+01   2,40000e+02  -5,15372e-01   9,53519e+01   7,00000e+01
           280   7,40811e+01   2,80000e+02  -4,60659e-01   9,47632e+01   7,66667e+01
           320   8,08011e+01   3,20000e+02  -4,16597e-01   9,42067e+01   8,33333e+01
           360   8,75174e+01   3,60000e+02  -4,04755e-01   9,37091e+01   9,00000e+01
           400   9,42040e+01   4,00000e+02  -3,93578e-01   9,32922e+01   9,66667e+01
           440   1,00906e+02   4,40000e+02  -3,95598e-01   9,29789e+01   1,03333e+02
           480   1,07605e+02   4,80000e+02  -4,10961e-01   9,28106e+01   1,10000e+02
           520   1,14321e+02   5,20000e+02  -3,57281e-01   9,26354e+01   1,16667e+02
           560   1,21012e+02   5,60000e+02  -3,35957e-01   9,24857e+01   1,23333e+02
           600   1,27742e+02   6,00000e+02  -3,91259e-01   9,24372e+01   1,30000e+02
           640   1,34471e+02   6,40000e+02  -4,51085e-01   9,24107e+01   1,36667e+02
           680   1,41220e+02   6,80000e+02  -5,26160e-01   9,23870e+01   1,43333e+02
           720   1,47962e+02   7,20000e+02  -5,81613e-01   9,23368e+01   1,50000e+02
           760   1,54705e+02   7,60000e+02  -6,22295e-01   9,22601e+01   1,56667e+02
           800   1,61476e+02   8,00000e+02  -6,61795e-01   9,21978e+01   1,63333e+02
           840   1,68233e+02   8,40000e+02  -6,92274e-01   9,21183e+01   1,70000e+02
           880   1,74990e+02   8,80000e+02  -7,18867e-01   9,20187e+01   1,76667e+02
           920   1,81759e+02   9,20000e+02  -7,50852e-01   9,19347e+01   1,83333e+02
           960   1,88519e+02   9,60000e+02  -7,73932e-01   9,17850e+01   1,90000e+02
          1000   1,95288e+02   1,00000e+03  -7,92596e-01   9,16488e+01   1,96667e+02
          1040   2,02075e+02   1,04000e+03  -8,10075e-01   9,14835e+01   2,03333e+02
          1080   2,08842e+02   1,08000e+03  -8,32692e-01   9,13255e+01   2,10000e+02
          1120   2,15622e+02   1,12000e+03  -8,40534e-01   9,11445e+01   2,16667e+02
          1160   2,22399e+02   1,16000e+03  -8,35080e-01   9,10286e+01   2,23333e+02
          1200   2,29158e+02   1,20000e+03  -8,42112e-01   9,09035e+01   2,30000e+02
          1240   2,35937e+02   1,24000e+03  -8,36382e-01   9,07804e+01   2,36667e+02
          1280   2,42708e+02   1,28000e+03  -8,03990e-01   9,06983e+01   2,43333e+02
          1320   2,49472e+02   1,32000e+03  -7,66943e-01   9,06437e+01   2,50000e+02
          1360   2,56254e+02   1,36000e+03  -7,24544e-01   9,06319e+01   2,56667e+02
          1400   2,63026e+02   1,40000e+03  -6,79505e-01   9,05901e+01   2,63333e+02
          1440   2,69799e+02   1,44000e+03  -6,35309e-01   9,05787e+01   2,70000e+02
          1480   2,76571e+02   1,48000e+03  -5,83730e-01   9,05491e+01   2,76667e+02
          1520   2,83334e+02   1,52000e+03  -5,37347e-01   9,05402e+01   2,83333e+02
          1560   2,90096e+02   1,56000e+03  -4,68540e-01   9,05294e+01   2,90000e+02
          1600   2,96880e+02   1,60000e+03  -3,99689e-01   9,05077e+01   2,96667e+02
          1640   3,03646e+02   1,64000e+03  -3,22716e-01   9,04901e+01   3,03333e+02
          1680   3,10408e+02   1,68000e+03  -2,58153e-01   9,04762e+01   3,10000e+02
          1720   3,17161e+02   1,72000e+03  -1,70559e-01   9,04767e+01   3,16667e+02
          1760   3,23921e+02   1,76000e+03  -6,84924e-02   9,04488e+01   3,23333e+02
          1800   3,30691e+02   1,80000e+03   3,26014e-02   9,04301e+01   3,30000e+02
          1840   3,37444e+02   1,84000e+03   1,45817e-01   9,04177e+01   3,36667e+02
          1880   3,44186e+02   1,88000e+03   2,60784e-01   9,04090e+01   3,43333e+02
          1920   3,50946e+02   1,92000e+03   3,80435e-01   9,04063e+01   3,50000e+02
          1960   3,57700e+02   1,96000e+03   5,06763e-01   9,03964e+01   3,56667e+02
          2000   3,64448e+02   2,00000e+03   6,62159e-01   9,03675e+01   3,63333e+02
          2040   3,71186e+02   2,04000e+03   7,97057e-01   9,03583e+01   3,70000e+02
          2080   3,77948e+02   2,08000e+03   9,41960e-01   9,03746e+01   3,76667e+02
          2120   3,84695e+02   2,12000e+03   1,09163e+00   9,03489e+01   3,83333e+02
          2160   3,91434e+02   2,16000e+03   1,24707e+00   9,03448e+01   3,90000e+02
          2200   3,98174e+02   2,20000e+03   1,42639e+00   9,03335e+01   3,96667e+02
          2240   4,04918e+02   2,24000e+03   1,61916e+00   9,03065e+01   4,03333e+02
          2280   4,11645e+02   2,28000e+03   1,81223e+00   9,02870e+01   4,10000e+02
          2320   4,18367e+02   2,32000e+03   1,99169e+00   9,02766e+01   4,16667e+02
          2360   4,25104e+02   2,36000e+03   2,20452e+00   9,02554e+01   4,23333e+02
          2400   4,31831e+02   2,40000e+03   2,41430e+00   9,02355e+01   4,30000e+02
          2440   4,38542e+02   2,44000e+03   2,64036e+00   9,02068e+01   4,36667e+02
          2480   4,45266e+02   2,48000e+03   2,87704e+00   9,01892e+01   4,43333e+02
          2520   4,51984e+02   2,52000e+03   3,10661e+00   9,01558e+01   4,50000e+02
          2560   4,58692e+02   2,56000e+03   3,31315e+00   9,01383e+01   4,56667e+02
          2600   4,65421e+02   2,60000e+03   3,54712e+00   9,01143e+01   4,63333e+02
          2640   4,72129e+02   2,64000e+03   3,80189e+00   9,00546e+01   4,70000e+02
          2680   4,78844e+02   2,68000e+03   4,05462e+00   9,00129e+01   4,76667e+02
          2720   4,85558e+02   2,72000e+03   4,29067e+00   8,99703e+01   4,83333e+02
          2760   4,92266e+02   2,76000e+03   4,53010e+00   8,99058e+01   4,90000e+02
          2800   4,98999e+02   2,80000e+03   4,79229e+00   8,98448e+01   4,96667e+02
          2840   5,05710e+02   2,84000e+03   5,03419e+00   8,97425e+01   5,03333e+02
          2880   5,12436e+02   2,88000e+03   5,27830e+00   8,96462e+01   5,10000e+02
          2920   5,19170e+02   2,92000e+03   5,53767e+00   8,95284e+01   5,16667e+02
          2960   5,25888e+02   2,96000e+03   5,78716e+00   8,93751e+01   5,23333e+02
          3000   5,32630e+02   3,00000e+03   5,98086e+00   8,92132e+01   5,30000e+02
          3040   5,39371e+02   3,04000e+03   6,18637e+00   8,89443e+01   5,36667e+02
          3080   5,46108e+02   3,08000e+03   6,32350e+00   8,86607e+01   5,43333e+02
          3120   5,52837e+02   3,12000e+03   6,43093e+00   8,82824e+01   5,50000e+02
          3160   5,59560e+02   3,16000e+03   6,46883e+00   8,78095e+01   5,56667e+02
          3200   5,66303e+02   3,20000e+03   6,50444e+00   8,72067e+01   5,63333e+02
          3240   5,73038e+02   3,24000e+03   6,46941e+00   8,65179e+01   5,70000e+02
          3280   5,79782e+02   3,28000e+03   6,40102e+00   8,56906e+01   5,76667e+02
          3320   5,86510e+02   3,32000e+03   6,24934e+00   8,47079e+01   5,83333e+02
          3360   5,93234e+02   3,36000e+03   5,98173e+00   8,35092e+01   5,90000e+02
          3400   5,99960e+02   3,40000e+03   5,59673e+00   8,21127e+01   5,96667e+02
          3440   6,06683e+02   3,44000e+03   5,09082e+00   8,04220e+01   6,03333e+02
          3480   6,13404e+02   3,48000e+03   4,52232e+00   7,84218e+01   6,10000e+02
          3520   6,20135e+02   3,52000e+03   4,03084e+00   7,61363e+01   6,16667e+02
          3560   6,26872e+02   3,56000e+03   3,85190e+00   7,36144e+01   6,23333e+02
          3600   6,33616e+02   3,60000e+03   4,10476e+00   7,10228e+01   6,30000e+02
          3640   6,40364e+02   3,64000e+03   4,82545e+00   6,85168e+01   6,36667e+02
          3680   6,47127e+02   3,68000e+03   5,82073e+00   6,62316e+01   6,43333e+02
          3720   6,53882e+02   3,72000e+03   6,82586e+00   6,41692e+01   6,50000e+02
          3760   6,60625e+02   3,76000e+03   7,64349e+00   6,23223e+01   6,56667e+02
          3800   6,67342e+02   3,80000e+03   8,08385e+00   6,05700e+01   6,63333e+02
          3840   6,74073e+02   3,84000e+03   8,19651e+00   5,88152e+01   6,70000e+02
          3880   6,80797e+02   3,88000e+03   8,04913e+00   5,69435e+01   6,76667e+02
          3920   6,87515e+02   3,92000e+03   7,79301e+00   5,48937e+01   6,83333e+02
          3960   6,94235e+02   3,96000e+03   7,42714e+00   5,26831e+01   6,90000e+02
          4000   7,00959e+02   4,00000e+03   7,04222e+00   5,02889e+01   6,96667e+02
          4040   7,07670e+02   4,04000e+03   6,65708e+00   4,76994e+01   7,03333e+02
          4080   7,14405e+02   4,08000e+03   6,31148e+00   4,49903e+01   7,10000e+02
          4120   7,21134e+02   4,12000e+03   5,96916e+00   4,21760e+01   7,16667e+02
          4160   7,27856e+02   4,16000e+03   5,64950e+00   3,93060e+01   7,23333e+02
          4200   7,34579e+02   4,20000e+03   5,35399e+00   3,64062e+01   7,30000e+02
          4240   7,41305e+02   4,24000e+03   5,12992e+00   3,35561e+01   7,36667e+02
          4280   7,48034e+02   4,28000e+03   4,98832e+00   3,08521e+01   7,43333e+02
          4320   7,54755e+02   4,32000e+03   4,86026e+00   2,82910e+01   7,50000e+02
          4360   7,61495e+02   4,36000e+03   4,71197e+00   2,59103e+01   7,56667e+02
          4400   7,68203e+02   4,40000e+03   4,55800e+00   2,37378e+01   7,63333e+02
          4440   7,74938e+02   4,44000e+03   4,33336e+00   2,17867e+01   7,70000e+02
          4480   7,81670e+02   4,48000e+03   4,12459e+00   2,00123e+01   7,76667e+02
          4520   7,88400e+02   4,52000e+03   3,88633e+00   1,84703e+01   7,83333e+02
          4560   7,95140e+02   4,56000e+03   3,65926e+00   1,71171e+01   7,90000e+02
          4600   8,01879e+02   4,60000e+03   3,49430e+00   1,59846e+01   7,96667e+02
          4620   8,05249e+02   4,62000e+03   3,44086e+00   1,55012e+01   8,00000e+02
!&20250826-01 P2 unfilled